Wavelength (nm)	A41 abs N
300.00	0.29156
300.25	0.29125
300.50	0.29153
300.75	0.29008
301.00	0.28937
301.25	0.28929
301.50	0.29042
301.75	0.29195
302.00	0.29184
302.25	0.29151
302.50	0.29452
302.75	0.29372
303.00	0.29853
303.25	0.29887
303.50	0.30217
303.75	0.30320
304.00	0.30710
304.25	0.30918
304.50	0.31523
304.75	0.31605
305.00	0.31763
305.25	0.32139
305.50	0.32457
305.75	0.32722
306.00	0.33009
306.25	0.33506
306.50	0.33765
306.75	0.34058
307.00	0.34545
307.25	0.34885
307.50	0.35146
307.75	0.35686
308.00	0.36097
308.25	0.36553
308.50	0.36870
308.75	0.36997
309.00	0.37503
309.25	0.37881
309.50	0.38333
309.75	0.38293
310.00	0.39043
310.25	0.39293
310.50	0.39480
310.75	0.39908
311.00	0.41259
311.25	0.40989
311.50	0.41706
311.75	0.41351
312.00	0.42581
312.25	0.41818
312.50	0.42825
312.75	0.43002
313.00	0.44062
313.25	0.44095
313.50	0.44523
313.75	0.45347
314.00	0.45263
314.25	0.45706
314.50	0.45939
314.75	0.46185
315.00	0.47004
315.25	0.47558
315.50	0.47892
315.75	0.48324
316.00	0.49087
316.25	0.49332
316.50	0.49927
316.75	0.49750
317.00	0.49946
317.25	0.50384
317.50	0.51217
317.75	0.50654
318.00	0.51538
318.25	0.52102
318.50	0.52379
318.75	0.52105
319.00	0.53310
319.25	0.53337
319.50	0.53780
319.75	0.53366
320.00	0.53671
320.25	0.53969
320.50	0.54113
320.75	0.54915
321.00	0.55551
321.25	0.55474
321.50	0.55066
321.75	0.54914
322.00	0.56125
322.25	0.56279
322.50	0.56157
322.75	0.55896
323.00	0.56591
323.25	0.56815
323.50	0.56086
323.75	0.56626
324.00	0.57407
324.25	0.57091
324.50	0.56980
324.75	0.56540
325.00	0.57047
325.25	0.56515
325.50	0.56954
325.75	0.56519
326.00	0.56946
326.25	0.57365
326.50	0.57438
326.75	0.56781
327.00	0.57370
327.25	0.56789
327.50	0.56757
327.75	0.56277
328.00	0.56654
328.25	0.56215
328.50	0.56535
328.75	0.56252
329.00	0.55717
329.25	0.55558
329.50	0.55163
329.75	0.54740
330.00	0.54777
330.25	0.54581
330.50	0.53825
330.75	0.53833
331.00	0.53550
331.25	0.52744
331.50	0.52768
331.75	0.52302
332.00	0.52053
332.25	0.51470
332.50	0.51004
332.75	0.50841
333.00	0.50510
333.25	0.50502
333.50	0.49333
333.75	0.48592
334.00	0.48142
334.25	0.48006
334.50	0.47683
334.75	0.47367
335.00	0.46802
335.25	0.47124
335.50	0.46475
335.75	0.45719
336.00	0.45159
336.25	0.45108
336.50	0.44428
336.75	0.43721
337.00	0.43649
337.25	0.42434
337.50	0.42135
337.75	0.41738
338.00	0.41161
338.25	0.40663
338.50	0.39791
338.75	0.39510
339.00	0.38750
339.25	0.38223
339.50	0.37564
339.75	0.37121
340.00	0.36437
340.25	0.36257
340.50	0.35510
340.75	0.34388
341.00	0.34641
341.25	0.33715
341.50	0.32654
341.75	0.32194
342.00	0.31960
342.25	0.31559
342.50	0.30979
342.75	0.30264
343.00	0.30005
343.25	0.29120
343.50	0.28930
343.75	0.27928
344.00	0.27956
344.25	0.27725
344.50	0.26888
344.75	0.25901
345.00	0.25634
345.25	0.25236
345.50	0.24946
345.75	0.24232
346.00	0.23858
346.25	0.23546
346.50	0.22828
346.75	0.22781
347.00	0.22213
347.25	0.21963
347.50	0.21664
347.75	0.21170
348.00	0.20625
348.25	0.20313
348.50	0.20101
348.75	0.19537
349.00	0.18903
349.25	0.18527
349.50	0.18370
349.75	0.17866
350.00	0.17590
350.25	0.17164
350.50	0.16883
350.75	0.16205
351.00	0.16542
351.25	0.16014
351.50	0.15606
351.75	0.15543
352.00	0.15227
352.25	0.15070
352.50	0.14921
352.75	0.14389
353.00	0.14628
353.25	0.14141
353.50	0.13973
353.75	0.13737
354.00	0.13561
354.25	0.13771
354.50	0.13056
354.75	0.12870
355.00	0.12790
355.25	0.12950
355.50	0.12214
355.75	0.12427
356.00	0.12310
356.25	0.12157
356.50	0.11837
356.75	0.11926
357.00	0.11369
357.25	0.11574
357.50	0.11687
357.75	0.11318
358.00	0.11550
358.25	0.11573
358.50	0.11676
358.75	0.11149
359.00	0.11276
359.25	0.11430
359.50	0.11402
359.75	0.10955
360.00	0.11235
360.25	0.11140
360.50	0.11282
360.75	0.11198
361.00	0.11285
361.25	0.11294
361.50	0.11430
361.75	0.11182
362.00	0.11536
362.25	0.11567
362.50	0.11594
362.75	0.11451
363.00	0.11651
363.25	0.11704
363.50	0.11634
363.75	0.11940
364.00	0.11639
364.25	0.11772
364.50	0.12072
364.75	0.12019
365.00	0.12364
365.25	0.12471
365.50	0.12573
365.75	0.12881
366.00	0.12762
366.25	0.12879
366.50	0.13117
366.75	0.13290
367.00	0.13327
367.25	0.13475
367.50	0.13805
367.75	0.13547
368.00	0.14227
368.25	0.14382
368.50	0.14411
368.75	0.14611
369.00	0.14915
369.25	0.14872
369.50	0.15006
369.75	0.15307
370.00	0.15488
370.25	0.15863
370.50	0.16122
370.75	0.15949
371.00	0.16406
371.25	0.16475
371.50	0.16985
371.75	0.17269
372.00	0.17295
372.25	0.17638
372.50	0.17997
372.75	0.18131
373.00	0.18148
373.25	0.18231
373.50	0.18996
373.75	0.19098
374.00	0.19156
374.25	0.19496
374.50	0.19792
374.75	0.19932
375.00	0.19841
375.25	0.20212
375.50	0.20322
375.75	0.21021
376.00	0.21374
376.25	0.21525
376.50	0.22105
376.75	0.22389
377.00	0.22533
377.25	0.23224
377.50	0.23354
377.75	0.23768
378.00	0.24434
378.25	0.24386
378.50	0.24564
378.75	0.25002
379.00	0.25393
379.25	0.26089
379.50	0.26167
379.75	0.26628
380.00	0.27102
380.25	0.27497
380.50	0.27750
380.75	0.28114
381.00	0.28268
381.25	0.28575
381.50	0.29035
381.75	0.29606
382.00	0.30065
382.25	0.30587
382.50	0.30729
382.75	0.31100
383.00	0.31687
383.25	0.32013
383.50	0.32531
383.75	0.32968
384.00	0.33306
384.25	0.33773
384.50	0.33932
384.75	0.34653
385.00	0.35268
385.25	0.35446
385.50	0.35994
385.75	0.36664
386.00	0.36508
386.25	0.36926
386.50	0.37941
386.75	0.38376
387.00	0.38555
387.25	0.39192
387.50	0.39341
387.75	0.39980
388.00	0.40372
388.25	0.41030
388.50	0.41229
388.75	0.42158
389.00	0.42358
389.25	0.42769
389.50	0.43104
389.75	0.43669
390.00	0.43877
390.25	0.44470
390.50	0.45191
390.75	0.45634
391.00	0.45920
391.25	0.46743
391.50	0.47089
391.75	0.47438
392.00	0.47990
392.25	0.48377
392.50	0.48652
392.75	0.49005
393.00	0.49662
393.25	0.50383
393.50	0.50924
393.75	0.51252
394.00	0.51814
394.25	0.52207
394.50	0.52580
394.75	0.53111
395.00	0.53798
395.25	0.54095
395.50	0.54776
395.75	0.55263
396.00	0.55711
396.25	0.56204
396.50	0.56903
396.75	0.57560
397.00	0.57781
397.25	0.58198
397.50	0.58953
397.75	0.59462
398.00	0.59723
398.25	0.59829
398.50	0.60557
398.75	0.60859
399.00	0.61370
399.25	0.61765
399.50	0.62273
399.75	0.62722
400.00	0.63236
400.25	0.63586
400.50	0.64208
400.75	0.64338
401.00	0.64803
401.25	0.65068
401.50	0.65804
401.75	0.66419
402.00	0.66795
402.25	0.66899
402.50	0.67733
402.75	0.67819
403.00	0.68495
403.25	0.68719
403.50	0.68989
403.75	0.69449
404.00	0.69807
404.25	0.70415
404.50	0.70899
404.75	0.71346
405.00	0.71659
405.25	0.71880
405.50	0.72688
405.75	0.72842
406.00	0.73223
406.25	0.73622
406.50	0.74236
406.75	0.74153
407.00	0.75209
407.25	0.75153
407.50	0.75719
407.75	0.75685
408.00	0.76264
408.25	0.76932
408.50	0.76939
408.75	0.77578
409.00	0.77815
409.25	0.78444
409.50	0.78335
409.75	0.79263
410.00	0.79227
410.25	0.79746
410.50	0.80130
410.75	0.80457
411.00	0.81021
411.25	0.80834
411.50	0.81531
411.75	0.81877
412.00	0.82181
412.25	0.82454
412.50	0.83028
412.75	0.82970
413.00	0.83638
413.25	0.84089
413.50	0.84451
413.75	0.84481
414.00	0.84789
414.25	0.84878
414.50	0.85301
414.75	0.85643
415.00	0.85711
415.25	0.85674
415.50	0.86528
415.75	0.86608
416.00	0.86689
416.25	0.87215
416.50	0.87358
416.75	0.87615
417.00	0.88151
417.25	0.88467
417.50	0.88912
417.75	0.88746
418.00	0.89453
418.25	0.89231
418.50	0.89691
418.75	0.89584
419.00	0.90307
419.25	0.90594
419.50	0.90415
419.75	0.90932
420.00	0.90970
420.25	0.91491
420.50	0.91393
420.75	0.91857
421.00	0.92300
421.25	0.92339
421.50	0.92715
421.75	0.92940
422.00	0.92657
422.25	0.93166
422.50	0.93296
422.75	0.93420
423.00	0.93987
423.25	0.93820
423.50	0.94032
423.75	0.94311
424.00	0.94711
424.25	0.94933
424.50	0.94606
424.75	0.94813
425.00	0.95274
425.25	0.95133
425.50	0.95606
425.75	0.95488
426.00	0.96360
426.25	0.95898
426.50	0.95991
426.75	0.96134
427.00	0.96353
427.25	0.96316
427.50	0.96184
427.75	0.96374
428.00	0.96784
428.25	0.96602
428.50	0.96883
428.75	0.97093
429.00	0.96726
429.25	0.97433
429.50	0.97746
429.75	0.97678
430.00	0.97648
430.25	0.97990
430.50	0.97895
430.75	0.97898
431.00	0.98144
431.25	0.98618
431.50	0.97903
431.75	0.98324
432.00	0.98944
432.25	0.98285
432.50	0.98641
432.75	0.99001
433.00	0.98681
433.25	0.98688
433.50	0.98856
433.75	0.98971
434.00	0.98894
434.25	0.99221
434.50	0.98814
434.75	0.98863
435.00	0.99027
435.25	0.99613
435.50	0.99292
435.75	0.99480
436.00	0.99544
436.25	0.99690
436.50	0.99841
436.75	0.99847
437.00	0.99530
437.25	0.99659
437.50	0.99969
437.75	0.99781
438.00	0.99663
438.25	0.99739
438.50	0.99631
438.75	0.99721
439.00	0.99233
439.25	0.99661
439.50	0.99624
439.75	0.99546
440.00	0.99948
440.25	0.99274
440.50	0.99546
440.75	0.99610
441.00	0.99380
441.25	0.99960
441.50	0.99492
441.75	0.99775
442.00	1.0000
442.25	0.99585
442.50	0.99654
442.75	0.99758
443.00	0.99348
443.25	0.99501
443.50	0.99588
443.75	0.99443
444.00	0.99447
444.25	0.99391
444.50	0.99369
444.75	0.99487
445.00	0.99048
445.25	0.99340
445.50	0.98939
445.75	0.99062
446.00	0.99045
446.25	0.99391
446.50	0.98973
446.75	0.98687
447.00	0.98914
447.25	0.98576
447.50	0.98609
447.75	0.98504
448.00	0.98750
448.25	0.98595
448.50	0.98124
448.75	0.98300
449.00	0.98394
449.25	0.98145
449.50	0.97777
449.75	0.97847
450.00	0.97506
450.25	0.97681
450.50	0.97840
450.75	0.97370
451.00	0.97682
451.25	0.97242
451.50	0.97334
451.75	0.97175
452.00	0.96857
452.25	0.96830
452.50	0.96669
452.75	0.96441
453.00	0.96584
453.25	0.95945
453.50	0.96420
453.75	0.96189
454.00	0.95876
454.25	0.95817
454.50	0.95519
454.75	0.95470
455.00	0.95182
455.25	0.95080
455.50	0.94884
455.75	0.95131
456.00	0.94690
456.25	0.94640
456.50	0.94181
456.75	0.94151
457.00	0.94108
457.25	0.93681
457.50	0.93678
457.75	0.93351
458.00	0.93253
458.25	0.93096
458.50	0.92781
458.75	0.92538
459.00	0.92390
459.25	0.92211
459.50	0.91849
459.75	0.91923
460.00	0.91381
460.25	0.91353
460.50	0.91282
460.75	0.91036
461.00	0.90577
461.25	0.90443
461.50	0.90079
461.75	0.89797
462.00	0.89788
462.25	0.89934
462.50	0.89218
462.75	0.89090
463.00	0.88724
463.25	0.88253
463.50	0.88001
463.75	0.88010
464.00	0.87515
464.25	0.87608
464.50	0.87003
464.75	0.87092
465.00	0.86575
465.25	0.86143
465.50	0.86069
465.75	0.85868
466.00	0.85270
466.25	0.85326
466.50	0.84798
466.75	0.84478
467.00	0.84523
467.25	0.84045
467.50	0.83692
467.75	0.83725
468.00	0.82947
468.25	0.82582
468.50	0.82487
468.75	0.82133
469.00	0.81668
469.25	0.81509
469.50	0.81331
469.75	0.80766
470.00	0.80608
470.25	0.80369
470.50	0.79666
470.75	0.79678
471.00	0.79008
471.25	0.78790
471.50	0.78718
471.75	0.78084
472.00	0.77927
472.25	0.77475
472.50	0.77190
472.75	0.76773
473.00	0.76290
473.25	0.76022
473.50	0.75594
473.75	0.75656
474.00	0.74993
474.25	0.74749
474.50	0.74511
474.75	0.74116
475.00	0.73515
475.25	0.73129
475.50	0.72596
475.75	0.72347
476.00	0.71812
476.25	0.71236
476.50	0.70757
476.75	0.70599
477.00	0.70322
477.25	0.69841
477.50	0.69219
477.75	0.68737
478.00	0.68688
478.25	0.68126
478.50	0.67878
478.75	0.67545
479.00	0.67258
479.25	0.66774
479.50	0.66377
479.75	0.65724
480.00	0.65616
480.25	0.64982
480.50	0.64869
480.75	0.64489
481.00	0.63802
481.25	0.63503
481.50	0.63310
481.75	0.62867
482.00	0.62453
482.25	0.62000
482.50	0.61774
482.75	0.61476
483.00	0.61023
483.25	0.60307
483.50	0.59835
483.75	0.59557
484.00	0.59409
484.25	0.58960
484.50	0.58771
484.75	0.58072
485.00	0.57804
485.25	0.57321
485.50	0.56809
485.75	0.56475
486.00	0.56042
486.25	0.55587
486.50	0.55036
486.75	0.55028
487.00	0.54483
487.25	0.54044
487.50	0.53692
487.75	0.53148
488.00	0.52796
488.25	0.52268
488.50	0.51961
488.75	0.51374
489.00	0.51090
489.25	0.50747
489.50	0.50578
489.75	0.50099
490.00	0.49731
490.25	0.49086
490.50	0.48826
490.75	0.48286
491.00	0.47919
491.25	0.47501
491.50	0.46920
491.75	0.46594
492.00	0.46093
492.25	0.46102
492.50	0.45313
492.75	0.45011
493.00	0.44620
493.25	0.44193
493.50	0.43591
493.75	0.43257
494.00	0.43157
494.25	0.42587
494.50	0.42423
494.75	0.42100
495.00	0.41970
495.25	0.41609
495.50	0.41040
495.75	0.40731
496.00	0.40267
496.25	0.40157
496.50	0.39693
496.75	0.39348
497.00	0.38723
497.25	0.38441
497.50	0.37980
497.75	0.37471
498.00	0.37049
498.25	0.36759
498.50	0.36423
498.75	0.36193
499.00	0.35759
499.25	0.35554
499.50	0.34848
499.75	0.34547
500.00	0.34120
500.25	0.33824
500.50	0.33506
500.75	0.32991
501.00	0.32722
501.25	0.32299
501.50	0.31980
501.75	0.31739
502.00	0.31247
502.25	0.31032
502.50	0.30538
502.75	0.30233
503.00	0.29810
503.25	0.29347
503.50	0.29071
503.75	0.28881
504.00	0.28449
504.25	0.27933
504.50	0.27784
504.75	0.27497
505.00	0.27167
505.25	0.27091
505.50	0.26595
505.75	0.26331
506.00	0.26039
506.25	0.25702
506.50	0.25119
506.75	0.25061
507.00	0.24590
507.25	0.24399
507.50	0.24311
507.75	0.23908
508.00	0.23643
508.25	0.23199
508.50	0.23061
508.75	0.22673
509.00	0.22417
509.25	0.22222
509.50	0.21717
509.75	0.21614
510.00	0.21155
510.25	0.21072
510.50	0.20757
510.75	0.20430
511.00	0.20272
511.25	0.19678
511.50	0.19652
511.75	0.19226
512.00	0.19363
512.25	0.19116
512.50	0.18711
512.75	0.18311
513.00	0.18055
513.25	0.17885
513.50	0.17599
513.75	0.17361
514.00	0.17284
514.25	0.16979
514.50	0.16894
514.75	0.16656
515.00	0.16494
515.25	0.15951
515.50	0.16029
515.75	0.15396
516.00	0.15357
516.25	0.15136
516.50	0.14939
516.75	0.14670
517.00	0.14298
517.25	0.14323
517.50	0.13920
517.75	0.14005
518.00	0.13631
518.25	0.13449
518.50	0.13357
518.75	0.13049
519.00	0.12981
519.25	0.12746
519.50	0.12624
519.75	0.12349
520.00	0.12273
520.25	0.11980
520.50	0.11699
520.75	0.11956
521.00	0.11593
521.25	0.11143
521.50	0.11295
521.75	0.11025
522.00	0.11051
522.25	0.10708
522.50	0.10571
522.75	0.10521
523.00	0.10274
523.25	0.10100
523.50	0.10042
523.75	0.098550
524.00	0.093792
524.25	0.095696
524.50	0.092048
524.75	0.091610
525.00	0.092033
525.25	0.090636
525.50	0.088265
525.75	0.087630
526.00	0.083975
526.25	0.082782
526.50	0.082359
526.75	0.081030
527.00	0.080124
527.25	0.081211
527.50	0.077451
527.75	0.076544
528.00	0.076288
528.25	0.075729
528.50	0.074483
528.75	0.071689
529.00	0.070465
529.25	0.071417
529.50	0.070329
529.75	0.068154
530.00	0.066455
530.25	0.066312
530.50	0.064968
530.75	0.063344
531.00	0.061003
531.25	0.060384
531.50	0.060859
531.75	0.060157
532.00	0.058345
532.25	0.057854
532.50	0.054931
532.75	0.056683
533.00	0.057250
533.25	0.052485
533.50	0.053799
533.75	0.052945
534.00	0.052409
534.25	0.049728
534.50	0.049585
534.75	0.051699
535.00	0.050551
535.25	0.048754
535.50	0.046851
535.75	0.049826
536.00	0.045514
536.25	0.044661
536.50	0.044517
536.75	0.041648
537.00	0.044185
537.25	0.040440
537.50	0.042947
537.75	0.040236
538.00	0.041935
538.25	0.039058
538.50	0.037192
538.75	0.036498
539.00	0.037895
539.25	0.037162
539.50	0.038166
539.75	0.035342
540.00	0.033922
540.25	0.035433
540.50	0.035561
540.75	0.032661
541.00	0.033469
541.25	0.033114
541.50	0.031702
541.75	0.031800
542.00	0.029301
542.25	0.028659
542.50	0.026990
542.75	0.031023
543.00	0.028546
543.25	0.026869
543.50	0.029935
543.75	0.029248
544.00	0.027367
544.25	0.024158
544.50	0.026952
544.75	0.023493
545.00	0.025683
545.25	0.024075
545.50	0.022874
545.75	0.026461
546.00	0.023977
546.25	0.025223
546.50	0.023735
546.75	0.022247
547.00	0.021477
547.25	0.020178
547.50	0.021658
547.75	0.020231
548.00	0.021160
548.25	0.019129
548.50	0.020420
548.75	0.021016
549.00	0.018834
549.25	0.019189
549.50	0.017822
549.75	0.018275
550.00	0.016878
550.25	0.018117
550.50	0.017988
550.75	0.018894
551.00	0.019400
551.25	0.015987
551.50	0.018192
551.75	0.015911
552.00	0.017286
552.25	0.015957
552.50	0.016130
552.75	0.015723
553.00	0.013321
553.25	0.015202
553.50	0.011954
553.75	0.015262
554.00	0.014975
554.25	0.012891
554.50	0.013820
554.75	0.015254
555.00	0.015345
555.25	0.012196
555.50	0.014643
555.75	0.012876
556.00	0.012596
556.25	0.011622
556.50	0.012000
556.75	0.012997
557.00	0.010837
557.25	0.013910
557.50	0.012136
557.75	0.011343
558.00	0.012513
558.25	0.010444
558.50	0.010618
558.75	0.0088884
559.00	0.011456
559.25	0.011109
559.50	0.010648
559.75	0.011396
560.00	0.0083296
560.25	0.0096209
560.50	0.0095529
560.75	0.010837
561.00	0.0091829
561.25	0.0090923
561.50	0.011267
561.75	0.0099683
562.00	0.0093490
562.25	0.0091678
562.50	0.0086241
562.75	0.0085939
563.00	0.010051
563.25	0.0097568
563.50	0.0072572
563.75	0.011192
564.00	0.0074536
564.25	0.010240
564.50	0.0073403
564.75	0.010285
565.00	0.0073176
565.25	0.0071892
565.50	0.0080804
565.75	0.0084881
566.00	0.0091678
566.25	0.0078689
566.50	0.0070911
566.75	0.0085259
567.00	0.0067815
567.25	0.0083975
567.50	0.0057393
567.75	0.0070760
568.00	0.0066078
568.25	0.0069778
568.50	0.0077556
568.75	0.0074385
569.00	0.0072043
569.25	0.0080275
569.50	0.0076197
569.75	0.0084126
570.00	0.0064718
570.25	0.0062151
570.50	0.0067361
570.75	0.0055732
571.00	0.0078765
571.25	0.0044555
571.50	0.0092962
571.75	0.0080577
572.00	0.0061169
572.25	0.0056487
572.50	0.0048558
572.75	0.0063208
573.00	0.0074082
573.25	0.0061245
573.50	0.0063737
573.75	0.0062226
574.00	0.0062377
574.25	0.0059206
574.50	0.0064492
574.75	0.0038740
575.00	0.0064492
575.25	0.0058073
575.50	0.0064114
575.75	0.0059885
576.00	0.0061396
576.25	0.0062981
576.50	0.0051201
576.75	0.0060640
577.00	0.0052258
577.25	0.0052636
577.50	0.0056789
577.75	0.0048935
578.00	0.0064190
578.25	0.0048935
578.50	0.0058148
578.75	0.0053768
579.00	0.0049086
579.25	0.0044782
579.50	0.0052560
579.75	0.0064794
580.00	0.0047047
580.25	0.0067588
580.50	0.0054977
580.75	0.0059734
581.00	0.0057922
581.25	0.0056638
581.50	0.0042667
581.75	0.0046066
582.00	0.0059281
582.25	0.0039722
582.50	0.0048633
582.75	0.0049464
583.00	0.0074536
583.25	0.0062226
583.50	0.0051805
583.75	0.0061093
584.00	0.0057997
584.25	0.0079142
584.50	0.0059961
584.75	0.0061018
585.00	0.0058526
585.25	0.0030585
585.50	0.0050521
585.75	0.0037985
586.00	0.0046745
586.25	0.0063586
586.50	0.0064265
586.75	0.0052862
587.00	0.0038816
587.25	0.0050143
587.50	0.0056638
587.75	0.0038438
588.00	0.0050370
588.25	0.0038589
588.50	0.0052485
588.75	0.0029074
589.00	0.0042139
589.25	0.0036852
589.50	0.0056487
589.75	0.0045915
590.00	0.0058224
590.25	0.0055203
590.50	0.0053693
590.75	0.0062377
591.00	0.0022957
591.25	0.0053919
591.50	0.0044857
591.75	0.0048256
592.00	0.0038816
592.25	0.0025676
592.50	0.0055203
592.75	0.0057393
593.00	0.0058224
593.25	0.0033379
593.50	0.0040477
593.75	0.0057091
594.00	0.0044782
594.25	0.0041383
594.50	0.0039873
594.75	0.0048105
595.00	0.0038061
595.25	0.0037608
595.50	0.0040100
595.75	0.0044555
596.00	0.0043120
596.25	0.0042365
596.50	0.0054297
596.75	0.0035116
597.00	0.0052938
597.25	0.0059357
597.50	0.0034965
597.75	0.0049917
598.00	0.0042894
598.25	0.0043573
598.50	0.0036097
598.75	0.0045839
599.00	0.0048558
599.25	0.0048029
599.50	0.0045763
599.75	0.0040100
600.00	0.0022504
