Wavelength (nm)	C01 ems
300.00	0.32014
300.50	0.31582
301.00	0.31116
301.50	0.30977
302.00	0.30747
302.50	0.30094
303.00	0.29386
303.50	0.29150
304.00	0.28237
304.50	0.27753
305.00	0.27585
305.50	0.27188
306.00	0.26661
306.50	0.26938
307.00	0.27528
307.50	0.29697
308.00	0.30689
308.50	0.32255
309.00	0.32691
309.50	0.32929
310.00	0.32618
310.50	0.31816
311.00	0.31673
311.50	0.31869
312.00	0.32042
312.50	0.32949
313.00	0.33453
313.50	0.34120
314.00	0.34862
314.50	0.36169
315.00	0.38042
315.50	0.44465
316.00	0.49081
316.50	0.60012
317.00	0.69657
317.50	0.83311
318.00	0.88172
318.50	0.94596
319.00	0.98169
319.50	0.99543
320.00	0.99007
320.50	0.99364
321.00	0.99683
321.50	0.99595
322.00	1.00000
322.50	0.99102
323.00	0.97740
323.50	0.94571
324.00	0.92669
324.50	0.89305
325.00	0.86469
325.50	0.83343
326.00	0.82291
326.50	0.81414
327.00	0.81346
327.50	0.81663
328.00	0.82678
328.50	0.83736
329.00	0.84062
329.50	0.84952
330.00	0.85051
330.50	0.85931
331.00	0.86446
331.50	0.89599
332.00	0.91498
332.50	0.94140
333.00	0.96344
333.50	0.97466
334.00	0.97931
334.50	0.95926
335.00	0.93513
335.50	0.89417
336.00	0.87858
336.50	0.84458
337.00	0.83817
337.50	0.81900
338.00	0.80558
338.50	0.78562
339.00	0.76386
339.50	0.72556
340.00	0.70780
340.50	0.67698
341.00	0.65539
341.50	0.63345
342.00	0.62237
342.50	0.60706
343.00	0.60226
343.50	0.59438
344.00	0.59138
344.50	0.59084
345.00	0.58273
345.50	0.58121
346.00	0.57400
346.50	0.56353
347.00	0.55605
347.50	0.54609
348.00	0.53961
348.50	0.53395
349.00	0.52297
349.50	0.50914
350.00	0.50315
350.50	0.48612
351.00	0.47541
351.50	0.45087
352.00	0.43935
352.50	0.42033
353.00	0.41196
353.50	0.39469
354.00	0.38786
354.50	0.37053
355.00	0.36676
355.50	0.35415
356.00	0.34590
356.50	0.33159
357.00	0.32529
357.50	0.30857
358.00	0.30042
358.50	0.28738
359.00	0.27803
359.50	0.26726
360.00	0.25934
360.50	0.25000
361.00	0.24553
361.50	0.23523
362.00	0.23458
362.50	0.22770
363.00	0.22503
363.50	0.21882
364.00	0.21412
364.50	0.20883
365.00	0.20285
365.50	0.19493
366.00	0.19248
366.50	0.18497
367.00	0.18044
367.50	0.17377
368.00	0.17206
368.50	0.16304
369.00	0.16014
369.50	0.15003
370.00	0.14599
370.50	0.14139
371.00	0.13875
371.50	0.13172
372.00	0.12990
372.50	0.12421
373.00	0.12198
373.50	0.11798
374.00	0.11806
374.50	0.11290
375.00	0.11173
375.50	0.10905
376.00	0.10505
376.50	0.10271
377.00	0.099504
377.50	0.096873
378.00	0.095418
378.50	0.090293
379.00	0.088729
379.50	0.084357
380.00	0.083862
380.50	0.082179
381.00	0.078685
381.50	0.076749
382.00	0.074122
382.50	0.074579
383.00	0.070671
383.50	0.070155
384.00	0.067963
384.50	0.066623
385.00	0.065602
385.50	0.062439
386.00	0.060654
386.50	0.059173
387.00	0.058132
387.50	0.056831
388.00	0.056236
388.50	0.053504
389.00	0.051820
389.50	0.050649
390.00	0.049286
390.50	0.047921
391.00	0.047624
391.50	0.045675
392.00	0.045714
392.50	0.044557
393.00	0.042225
393.50	0.041559
394.00	0.041338
394.50	0.039299
395.00	0.039559
395.50	0.038374
396.00	0.038219
396.50	0.037627
397.00	0.037245
397.50	0.035582
398.00	0.035718
398.50	0.034389
399.00	0.033570
399.50	0.032825
400.00	0.032343
400.50	0.031708
401.00	0.030821
401.50	0.030518
402.00	0.030463
402.50	0.028710
403.00	0.029099
403.50	0.027908
404.00	0.028472
404.50	0.027125
405.00	0.026341
405.50	0.026468
406.00	0.025558
406.50	0.025448
407.00	0.024355
407.50	0.024252
408.00	0.023405
408.50	0.023401
409.00	0.023615
409.50	0.022817
410.00	0.022411
410.50	0.021644
411.00	0.021241
411.50	0.020552
412.00	0.020756
412.50	0.019989
413.00	0.019926
413.50	0.019492
414.00	0.018764
414.50	0.018298
415.00	0.018419
415.50	0.018221
416.00	0.017547
416.50	0.018252
417.00	0.017862
417.50	0.017009
418.00	0.016773
418.50	0.016328
419.00	0.016319
419.50	0.015988
420.00	0.015493
420.50	0.015883
421.00	0.015300
421.50	0.015486
422.00	0.015108
422.50	0.015068
423.00	0.014553
423.50	0.014728
424.00	0.014423
424.50	0.014558
425.00	0.014247
425.50	0.013681
426.00	0.013539
426.50	0.013313
427.00	0.013526
427.50	0.012883
428.00	0.013152
428.50	0.013286
429.00	0.012560
429.50	0.012683
430.00	0.012289
430.50	0.011997
431.00	0.012473
431.50	0.011917
432.00	0.011860
432.50	0.012000
433.00	0.011825
433.50	0.011858
434.00	0.011299
434.50	0.011779
435.00	0.010711
435.50	0.011036
436.00	0.010562
436.50	0.010798
437.00	0.010430
437.50	0.010727
438.00	0.010488
438.50	0.010461
439.00	0.010300
439.50	0.0099203
440.00	0.0096024
440.50	0.0096707
441.00	0.0096214
441.50	0.0093703
442.00	0.0094778
442.50	0.0091420
443.00	0.0093562
443.50	0.0087951
444.00	0.0089305
444.50	0.0095220
445.00	0.0091625
445.50	0.0089823
446.00	0.0088753
446.50	0.0091912
447.00	0.0087905
447.50	0.0086379
448.00	0.0081798
448.50	0.0086544
449.00	0.0086316
449.50	0.0086767
450.00	0.0081154
450.50	0.0079338
451.00	0.0076952
451.50	0.0082115
452.00	0.0078250
452.50	0.0080919
453.00	0.0080292
453.50	0.0075848
454.00	0.0075728
454.50	0.0076578
455.00	0.0073834
455.50	0.0076503
456.00	0.0073805
456.50	0.0072533
457.00	0.0074119
457.50	0.0067295
458.00	0.0068479
458.50	0.0070638
459.00	0.0067354
459.50	0.0073587
460.00	0.0072137
460.50	0.0067398
461.00	0.0067710
461.50	0.0067677
462.00	0.0061935
462.50	0.0067783
463.00	0.0066015
463.50	0.0065516
464.00	0.0064784
464.50	0.0062889
465.00	0.0063836
465.50	0.0064217
466.00	0.0061803
466.50	0.0060957
467.00	0.0064781
467.50	0.0064346
468.00	0.0055240
468.50	0.0058309
469.00	0.0058273
469.50	0.0061472
470.00	0.0059143
470.50	0.0056480
471.00	0.0056705
471.50	0.0061551
472.00	0.0059055
472.50	0.0058333
473.00	0.0062136
473.50	0.0059029
474.00	0.0058959
474.50	0.0053737
475.00	0.0054017
475.50	0.0056402
476.00	0.0054941
476.50	0.0056733
477.00	0.0055507
477.50	0.0056882
478.00	0.0054559
478.50	0.0054721
479.00	0.0055065
479.50	0.0057302
480.00	0.0051537
480.50	0.0051895
481.00	0.0052131
481.50	0.0052921
482.00	0.0052543
482.50	0.0049752
483.00	0.0048125
483.50	0.0053442
484.00	0.0052375
484.50	0.0049558
485.00	0.0047353
485.50	0.0050012
486.00	0.0049921
486.50	0.0053412
487.00	0.0047471
487.50	0.0049393
488.00	0.0048604
488.50	0.0048381
489.00	0.0050632
489.50	0.0047487
490.00	0.0049744
490.50	0.0045700
491.00	0.0049250
491.50	0.0049609
492.00	0.0048557
492.50	0.0049495
493.00	0.0047921
493.50	0.0042139
494.00	0.0048703
494.50	0.0045364
495.00	0.0048059
495.50	0.0045101
496.00	0.0044155
496.50	0.0041109
497.00	0.0047234
497.50	0.0044576
498.00	0.0045200
498.50	0.0044835
499.00	0.0042881
499.50	0.0044565
500.00	0.0044461
