Wavelength (nm)	C02 abs N
260.00	0.56381
260.25	0.50881
260.50	0.45851
260.75	0.41734
261.00	0.38026
261.25	0.34959
261.50	0.32085
261.75	0.29767
262.00	0.27374
262.25	0.25420
262.50	0.23822
262.75	0.22361
263.00	0.20991
263.25	0.19720
263.50	0.18611
263.75	0.17613
264.00	0.16679
264.25	0.15695
264.50	0.15107
264.75	0.14338
265.00	0.13584
265.25	0.13118
265.50	0.12434
265.75	0.11846
266.00	0.11414
266.25	0.10857
266.50	0.10584
266.75	0.10152
267.00	0.099508
267.25	0.094523
267.50	0.091342
267.75	0.088178
268.00	0.085396
268.25	0.082661
268.50	0.079294
268.75	0.076754
269.00	0.074519
269.25	0.072714
269.50	0.071175
269.75	0.068464
270.00	0.067042
270.25	0.064963
270.50	0.063057
270.75	0.062010
271.00	0.060509
271.25	0.059767
271.50	0.057798
271.75	0.056884
272.00	0.052938
272.25	0.050750
272.50	0.052008
272.75	0.050047
273.00	0.050992
273.25	0.048343
273.50	0.047898
273.75	0.046578
274.00	0.044765
274.25	0.044530
274.50	0.045241
274.75	0.042507
275.00	0.042421
275.25	0.042022
275.50	0.039670
275.75	0.038592
276.00	0.038678
276.25	0.038006
276.50	0.037498
276.75	0.036248
277.00	0.036982
277.25	0.035107
277.50	0.034959
277.75	0.034544
278.00	0.035662
278.25	0.036138
278.50	0.033708
278.75	0.035474
279.00	0.032716
279.25	0.034740
279.50	0.033529
279.75	0.034841
280.00	0.033458
280.25	0.033826
280.50	0.033497
280.75	0.033349
281.00	0.033247
281.25	0.032489
281.50	0.032450
281.75	0.032943
282.00	0.033583
282.25	0.032927
282.50	0.033794
282.75	0.032896
283.00	0.031747
283.25	0.032357
283.50	0.032294
283.75	0.031060
284.00	0.032278
284.25	0.033115
284.50	0.032357
284.75	0.031669
285.00	0.031817
285.25	0.031106
285.50	0.029942
285.75	0.030895
286.00	0.030450
286.25	0.030184
286.50	0.030614
286.75	0.030395
287.00	0.031833
287.25	0.031849
287.50	0.030669
287.75	0.030130
288.00	0.032880
288.25	0.032185
288.50	0.033318
288.75	0.033255
289.00	0.032825
289.25	0.033912
289.50	0.033998
289.75	0.036545
290.00	0.035037
290.25	0.038240
290.50	0.036998
290.75	0.039842
291.00	0.040577
291.25	0.040522
291.50	0.041006
291.75	0.042702
292.00	0.044835
292.25	0.045101
292.50	0.048281
292.75	0.048375
293.00	0.051586
293.25	0.050688
293.50	0.051196
293.75	0.053352
294.00	0.054399
294.25	0.055712
294.50	0.056282
294.75	0.057165
295.00	0.056907
295.25	0.056946
295.50	0.059400
295.75	0.058673
296.00	0.061197
296.25	0.061135
296.50	0.061619
296.75	0.062791
297.00	0.062338
297.25	0.060189
297.50	0.063221
297.75	0.059900
298.00	0.061713
298.25	0.060713
298.50	0.062049
298.75	0.062463
299.00	0.060463
299.25	0.060666
299.50	0.061111
299.75	0.063236
300.00	0.064948
300.25	0.064744
300.50	0.065120
300.75	0.066878
301.00	0.067167
301.25	0.068065
301.50	0.071714
301.75	0.071839
302.00	0.074918
302.25	0.077825
302.50	0.079833
302.75	0.082247
303.00	0.084341
303.25	0.087420
303.50	0.091186
303.75	0.093546
304.00	0.098789
304.25	0.10098
304.50	0.10372
304.75	0.10601
305.00	0.11035
305.25	0.11419
305.50	0.11757
305.75	0.12075
306.00	0.12385
306.25	0.12964
306.50	0.13086
306.75	0.13508
307.00	0.13750
307.25	0.14000
307.50	0.14348
307.75	0.14599
308.00	0.14828
308.25	0.15116
308.50	0.15220
308.75	0.15452
309.00	0.15545
309.25	0.15615
309.50	0.15615
309.75	0.15364
310.00	0.15040
310.25	0.15239
310.50	0.15045
310.75	0.14798
311.00	0.14219
311.25	0.14479
311.50	0.14541
311.75	0.14512
312.00	0.14148
312.25	0.14655
312.50	0.14390
312.75	0.13811
313.00	0.14142
313.25	0.13819
313.50	0.13572
313.75	0.14060
314.00	0.14153
314.25	0.14437
314.50	0.14036
314.75	0.15277
315.00	0.14901
315.25	0.15648
315.50	0.15626
315.75	0.16673
316.00	0.16732
316.25	0.17315
316.50	0.17979
316.75	0.18380
317.00	0.18774
317.25	0.19498
317.50	0.20480
317.75	0.21164
318.00	0.22332
318.25	0.23100
318.50	0.23674
318.75	0.23997
319.00	0.24704
319.25	0.25570
319.50	0.26510
319.75	0.26347
320.00	0.27207
320.25	0.27375
320.50	0.28088
320.75	0.28833
321.00	0.29957
321.25	0.29943
321.50	0.31269
321.75	0.32027
322.00	0.32785
322.25	0.33479
322.50	0.34224
322.75	0.34117
323.00	0.35123
323.25	0.35469
323.50	0.35084
323.75	0.34848
324.00	0.34744
324.25	0.34542
324.50	0.34209
324.75	0.33319
325.00	0.33014
325.25	0.32018
325.50	0.31456
325.75	0.31113
326.00	0.30911
326.25	0.29663
326.50	0.29406
326.75	0.28683
327.00	0.28342
327.25	0.28448
327.50	0.27253
327.75	0.27075
328.00	0.26924
328.25	0.26839
328.50	0.26433
328.75	0.26485
329.00	0.26863
329.25	0.26716
329.50	0.27232
329.75	0.27000
330.00	0.27109
330.25	0.27695
330.50	0.27588
330.75	0.28128
331.00	0.28594
331.25	0.29502
331.50	0.29781
331.75	0.30786
332.00	0.31092
332.25	0.32250
332.50	0.33819
332.75	0.35435
333.00	0.36639
333.25	0.38663
333.50	0.40118
333.75	0.41960
334.00	0.43160
334.25	0.44914
334.50	0.45212
334.75	0.45915
335.00	0.46571
335.25	0.47552
335.50	0.48383
335.75	0.49306
336.00	0.50063
336.25	0.50870
336.50	0.51833
336.75	0.52718
337.00	0.54330
337.25	0.55531
337.50	0.57350
337.75	0.59482
338.00	0.61030
338.25	0.62334
338.50	0.64939
338.75	0.65415
339.00	0.66248
339.25	0.67661
339.50	0.66799
339.75	0.67096
340.00	0.65867
340.25	0.64793
340.50	0.62872
340.75	0.60932
341.00	0.59088
341.25	0.57325
341.50	0.55617
341.75	0.52862
342.00	0.51025
342.25	0.49168
342.50	0.47314
342.75	0.45259
343.00	0.44373
343.25	0.42249
343.50	0.41461
343.75	0.39989
344.00	0.38888
344.25	0.37890
344.50	0.37604
344.75	0.36606
345.00	0.36426
345.25	0.36215
345.50	0.36348
345.75	0.35970
346.00	0.35787
346.25	0.36276
346.50	0.35918
346.75	0.36378
347.00	0.36646
347.25	0.36689
347.50	0.36873
347.75	0.37138
348.00	0.37726
348.25	0.38346
348.50	0.39417
348.75	0.41179
349.00	0.42325
349.25	0.44827
349.50	0.46252
349.75	0.49485
350.00	0.51508
350.25	0.54052
350.50	0.56772
350.75	0.59847
351.00	0.61059
351.25	0.63400
351.50	0.64695
351.75	0.66003
352.00	0.67379
352.25	0.67189
352.50	0.68164
352.75	0.68722
353.00	0.69181
353.25	0.70442
353.50	0.71985
353.75	0.73514
354.00	0.75481
354.25	0.77971
354.50	0.80911
354.75	0.84544
355.00	0.88076
355.25	0.91780
355.50	0.95437
355.75	0.98445
356.00	0.99336
356.25	1.0000
356.50	0.98679
356.75	0.97523
357.00	0.95124
357.25	0.91772
357.50	0.88303
357.75	0.85506
358.00	0.80747
358.25	0.76277
358.50	0.72380
358.75	0.67968
359.00	0.63939
359.25	0.60044
359.50	0.56399
359.75	0.53133
360.00	0.50372
360.25	0.47043
360.50	0.44707
360.75	0.42229
361.00	0.40101
361.25	0.37853
361.50	0.35780
361.75	0.34179
362.00	0.32257
362.25	0.31131
362.50	0.30053
362.75	0.28819
363.00	0.28073
363.25	0.27211
363.50	0.26632
363.75	0.26166
364.00	0.25641
364.25	0.25635
364.50	0.25213
364.75	0.25037
365.00	0.24718
365.25	0.24595
365.50	0.24251
365.75	0.24147
366.00	0.23930
366.25	0.23926
366.50	0.24262
366.75	0.24493
367.00	0.25331
367.25	0.26699
367.50	0.27520
367.75	0.29680
368.00	0.31656
368.25	0.33550
368.50	0.35938
368.75	0.38596
369.00	0.41272
369.25	0.43293
369.50	0.45284
369.75	0.46941
370.00	0.48054
370.25	0.48951
370.50	0.49101
370.75	0.49609
371.00	0.49389
371.25	0.49102
371.50	0.48584
371.75	0.48631
372.00	0.48912
372.25	0.49942
372.50	0.51668
372.75	0.53794
373.00	0.56921
373.25	0.60504
373.50	0.64319
373.75	0.68338
374.00	0.72512
374.25	0.76415
374.50	0.78442
374.75	0.80192
375.00	0.82325
375.25	0.84568
375.50	0.86889
375.75	0.88584
376.00	0.91116
376.25	0.91733
376.50	0.90686
376.75	0.86592
377.00	0.82278
377.25	0.77643
377.50	0.71942
377.75	0.65600
378.00	0.59550
378.25	0.53371
378.50	0.47972
378.75	0.42361
379.00	0.37549
379.25	0.33163
379.50	0.29271
379.75	0.26090
380.00	0.23063
380.25	0.20445
380.50	0.18453
380.75	0.17079
381.00	0.15372
381.25	0.14160
381.50	0.12811
381.75	0.12092
382.00	0.11101
382.25	0.10491
382.50	0.094773
382.75	0.087623
383.00	0.079387
383.25	0.073340
383.50	0.071402
383.75	0.063127
384.00	0.057204
384.25	0.054657
384.50	0.050945
384.75	0.044273
385.00	0.038709
385.25	0.037123
385.50	0.035388
385.75	0.032669
386.00	0.031692
386.25	0.028833
386.50	0.024738
386.75	0.026621
387.00	0.026184
387.25	0.023269
387.50	0.021519
387.75	0.023136
388.00	0.021308
388.25	0.019566
388.50	0.017432
388.75	0.019480
389.00	0.017792
389.25	0.017276
389.50	0.015385
389.75	0.015229
390.00	0.014104
390.25	0.013432
390.50	0.014909
390.75	0.011603
391.00	0.011056
391.25	0.013104
391.50	0.011814
391.75	0.010791
392.00	0.010814
392.25	0.010705
392.50	0.0099937
392.75	0.0093452
393.00	0.0091499
393.25	0.0088686
393.50	0.010314
393.75	0.010361
394.00	0.0083294
394.25	0.0064463
394.50	0.0090014
394.75	0.0070949
395.00	0.0064932
395.25	0.0056962
395.50	0.0057196
395.75	0.0048679
396.00	0.0072746
396.25	0.0044538
396.50	0.0045788
396.75	0.0055556
397.00	0.0058134
397.25	0.0071105
397.50	0.0046023
397.75	0.0059619
398.00	0.0028051
398.25	0.0057587
398.50	0.0062979
398.75	0.0036178
399.00	0.0035552
399.25	0.0043522
399.50	0.0033599
399.75	0.0016096
400.00	0.0026176
400.25	0.0032974
400.50	0.0040944
400.75	0.0037350
401.00	0.0054149
401.25	0.0035396
401.50	0.0027348
401.75	0.0058994
402.00	0.0027895
402.25	0.0050008
402.50	0.0016487
402.75	0.0029614
403.00	0.0018362
403.25	0.0046726
403.50	0.0029536
403.75	0.0026020
404.00	0.0022894
404.25	0.0033365
404.50	0.0022425
404.75	0.0022504
405.00	0.0031958
405.25	0.0026801
405.50	0.0022425
405.75	0.0043679
406.00	0.0014299
406.25	0.0041491
406.50	0.0019300
406.75	0.0043679
407.00	0.0019378
407.25	0.0021800
407.50	0.00076574
407.75	0.0011174
408.00	0.0040631
408.25	0.0011642
408.50	0.0032661
408.75	0.0022582
409.00	0.0015471
409.25	0.0021566
409.50	-0.00037506
409.75	0.0032896
410.00	0.0017268
410.25	0.0038600
410.50	0.0018362
410.75	0.0026020
411.00	0.0020550
411.25	0.0019300
411.50	0.0021957
411.75	0.0038834
412.00	0.0021957
412.25	0.00086334
412.50	0.0021957
412.75	0.0024457
413.00	0.0019534
413.25	0.0030864
413.50	0.0012815
413.75	0.0013518
414.00	0.0034302
414.25	0.0018128
414.50	0.0040006
414.75	0.0031958
415.00	0.00074230
415.25	0.0017737
415.50	0.0013752
415.75	0.0029301
416.00	0.0030786
416.25	-0.00052352
416.50	0.00085170
416.75	0.0023910
417.00	0.0010705
417.25	0.0014924
417.50	0.0017893
417.75	0.0017503
418.00	0.0012033
418.25	0.0020003
418.50	0.0023050
418.75	0.0016956
419.00	0.0029380
419.25	0.0013361
419.50	0.0026645
419.75	0.0017346
420.00	0.0020863
420.25	0.0027739
420.50	0.00096890
420.75	0.0016800
421.00	0.00024223
421.25	0.0013205
421.50	0.0023207
421.75	0.0030630
422.00	0.0021175
422.25	0.0019300
422.50	0.0016487
422.75	0.0023832
423.00	0.0027348
423.25	0.0029927
423.50	0.0020238
423.75	0.0028364
424.00	0.0017425
424.25	-0.00042975
424.50	0.0038053
424.75	0.00064854
425.00	0.0019612
425.25	0.0019456
425.50	0.0024769
425.75	0.0021957
426.00	0.0022660
426.25	0.0021878
426.50	0.0020238
426.75	0.0033755
427.00	0.00045320
427.25	0.0019769
427.50	0.0018206
427.75	0.0018284
428.00	0.0024379
428.25	0.0016018
428.50	0.0023363
428.75	0.0010158
429.00	0.0022113
429.25	0.00089076
429.50	0.00093765
429.75	0.0011721
430.00	0.0010080
430.25	0.0021175
430.50	0.00012502
430.75	0.0019769
431.00	0.0018206
431.25	0.0032036
431.50	0.0018050
431.75	0.0010549
432.00	0.0020706
432.25	6.2510e-05
432.50	0.00089076
432.75	0.0011877
433.00	0.00024223
433.25	0.0011486
433.50	0.0025942
433.75	0.00042194
434.00	0.0013752
434.25	0.0012346
434.50	0.00024223
434.75	0.0022816
435.00	0.00057040
435.25	0.0033912
435.50	0.0015706
435.75	0.0016643
436.00	0.0029145
436.25	0.0036178
436.50	0.0022269
436.75	0.0018362
437.00	0.0021019
437.25	0.0024769
437.50	0.0032427
437.75	8.5951e-05
438.00	0.0024301
438.25	0.0023363
438.50	0.00039850
438.75	0.0011252
439.00	0.0016253
439.25	0.0023676
439.50	0.00095327
439.75	0.0022113
440.00	0.0021566
440.25	0.0015315
440.50	-0.00010158
440.75	0.0017893
441.00	0.0027426
441.25	0.0021644
441.50	0.0010470
441.75	0.0016409
442.00	0.00079700
442.25	0.0011721
442.50	0.0021488
442.75	0.00088295
443.00	0.00099234
443.25	0.0018675
443.50	0.0027035
443.75	0.0028208
444.00	0.00021097
444.25	0.0021566
444.50	0.00064854
444.75	0.0019144
445.00	0.0018440
445.25	0.00084388
445.50	0.00031255
445.75	0.0020550
446.00	0.00090639
446.25	0.0015471
446.50	0.0023597
446.75	0.0016565
447.00	0.0015237
447.25	0.0010627
447.50	0.0011408
447.75	-0.00059384
448.00	0.0012268
448.25	0.0017815
448.50	0.0014924
448.75	0.0015159
449.00	0.0014924
449.25	0.0017972
449.50	0.00061728
449.75	0.00068761
450.00	0.0025316
