Wavelength (nm)	C08 ems
360.00	0.0014608
360.50	0.0014686
361.00	0.0015002
361.50	0.0015354
362.00	0.0015520
362.50	0.0015971
363.00	0.0016071
363.50	0.0016219
364.00	0.0016281
364.50	0.0016979
365.00	0.0016972
365.50	0.0018043
366.00	0.0018194
366.50	0.0018329
367.00	0.0018470
367.50	0.0018205
368.00	0.0018038
368.50	0.0018015
369.00	0.0017921
369.50	0.0017966
370.00	0.0017245
370.50	0.0017794
371.00	0.0018485
371.50	0.0019344
372.00	0.0020048
372.50	0.0021180
373.00	0.0021972
373.50	0.0023960
374.00	0.0024567
374.50	0.0027681
375.00	0.0028375
375.50	0.0030405
376.00	0.0031862
376.50	0.0034584
377.00	0.0036774
377.50	0.0039629
378.00	0.0041879
378.50	0.0045858
379.00	0.0049283
379.50	0.0054892
380.00	0.0058747
380.50	0.0066812
381.00	0.0073388
381.50	0.0088495
382.00	0.0096184
382.50	0.011638
383.00	0.013165
383.50	0.016336
384.00	0.018620
384.50	0.023035
385.00	0.027079
385.50	0.036198
386.00	0.041452
386.50	0.054571
387.00	0.064761
387.50	0.085586
388.00	0.096790
388.50	0.11924
389.00	0.13645
389.50	0.16599
390.00	0.18276
390.50	0.21276
391.00	0.23730
391.50	0.27846
392.00	0.30077
392.50	0.33996
393.00	0.36951
393.50	0.41945
394.00	0.44857
394.50	0.49578
395.00	0.52989
395.50	0.58542
396.00	0.61353
396.50	0.65955
397.00	0.69149
397.50	0.74078
398.00	0.76558
398.50	0.80639
399.00	0.83321
399.50	0.87409
400.00	0.89329
400.50	0.92309
401.00	0.94022
401.50	0.96264
402.00	0.97134
402.50	0.98651
403.00	0.99350
403.50	0.99961
404.00	1.0000
404.50	0.99941
405.00	0.99641
405.50	0.99085
406.00	0.98552
406.50	0.97213
407.00	0.96472
407.50	0.94622
408.00	0.93843
408.50	0.92242
409.00	0.90869
409.50	0.89143
410.00	0.88359
410.50	0.86795
411.00	0.85922
411.50	0.84810
412.00	0.84283
412.50	0.83334
413.00	0.82981
413.50	0.82693
414.00	0.82476
414.50	0.82458
415.00	0.82631
415.50	0.83206
416.00	0.83519
416.50	0.84228
417.00	0.84787
417.50	0.85805
418.00	0.86263
418.50	0.87494
419.00	0.88105
419.50	0.89375
420.00	0.90201
420.50	0.91358
421.00	0.92137
421.50	0.93245
422.00	0.93811
422.50	0.94808
423.00	0.95399
423.50	0.96155
424.00	0.96528
424.50	0.97109
425.00	0.97235
425.50	0.97382
426.00	0.97196
426.50	0.96902
427.00	0.96487
427.50	0.95765
428.00	0.95277
428.50	0.94228
429.00	0.93450
429.50	0.91965
430.00	0.91130
430.50	0.89097
431.00	0.87824
431.50	0.85864
432.00	0.84737
432.50	0.82895
433.00	0.81146
433.50	0.78752
434.00	0.77432
434.50	0.75394
435.00	0.73928
435.50	0.71673
436.00	0.70538
436.50	0.68883
437.00	0.67626
437.50	0.65863
438.00	0.64906
438.50	0.63401
439.00	0.62419
439.50	0.60874
440.00	0.60201
440.50	0.59110
441.00	0.58271
441.50	0.57365
442.00	0.56679
442.50	0.55842
443.00	0.55483
443.50	0.54516
444.00	0.54216
444.50	0.53592
445.00	0.53342
445.50	0.52702
446.00	0.52402
446.50	0.51905
447.00	0.51653
447.50	0.51163
448.00	0.51018
448.50	0.50478
449.00	0.50279
449.50	0.49724
450.00	0.49486
450.50	0.48982
451.00	0.48617
451.50	0.48034
452.00	0.47716
452.50	0.47101
453.00	0.46594
453.50	0.45874
454.00	0.45479
454.50	0.44615
455.00	0.44042
455.50	0.43134
456.00	0.42738
456.50	0.41740
457.00	0.41188
457.50	0.40015
458.00	0.39485
458.50	0.38338
459.00	0.37660
459.50	0.36582
460.00	0.36022
460.50	0.35130
461.00	0.34404
461.50	0.33338
462.00	0.32823
462.50	0.31998
463.00	0.31242
463.50	0.30222
464.00	0.29642
464.50	0.28875
465.00	0.28329
465.50	0.27472
466.00	0.27043
466.50	0.26151
467.00	0.25663
467.50	0.24849
468.00	0.24451
468.50	0.23813
469.00	0.23364
469.50	0.22609
470.00	0.22275
470.50	0.21736
471.00	0.21337
471.50	0.20797
472.00	0.20550
472.50	0.19965
473.00	0.19673
473.50	0.19158
474.00	0.18900
474.50	0.18484
475.00	0.18213
475.50	0.17769
476.00	0.17533
476.50	0.17175
477.00	0.16887
477.50	0.16477
478.00	0.16320
478.50	0.15938
479.00	0.15695
479.50	0.15271
480.00	0.15153
480.50	0.14865
481.00	0.14646
481.50	0.14300
482.00	0.14101
482.50	0.13843
483.00	0.13632
483.50	0.13260
484.00	0.13148
484.50	0.12846
485.00	0.12662
485.50	0.12355
486.00	0.12251
486.50	0.11952
487.00	0.11693
487.50	0.11393
488.00	0.11253
488.50	0.11019
489.00	0.10766
489.50	0.10515
490.00	0.10354
490.50	0.10075
491.00	0.099100
491.50	0.095791
492.00	0.094161
492.50	0.091724
493.00	0.090232
493.50	0.086790
494.00	0.085708
494.50	0.083010
495.00	0.081237
495.50	0.078840
496.00	0.077755
496.50	0.075057
497.00	0.073706
497.50	0.070984
498.00	0.069740
498.50	0.067550
499.00	0.065996
499.50	0.063541
500.00	0.062540
500.50	0.060364
501.00	0.059156
501.50	0.056897
502.00	0.055945
502.50	0.054040
503.00	0.052810
503.50	0.050769
504.00	0.050171
504.50	0.048474
505.00	0.047896
505.50	0.046040
506.00	0.045348
506.50	0.043892
507.00	0.042977
507.50	0.041672
508.00	0.041015
508.50	0.039869
509.00	0.039157
509.50	0.038149
510.00	0.037464
510.50	0.036721
511.00	0.035903
511.50	0.035184
512.00	0.034609
512.50	0.034038
513.00	0.033186
513.50	0.032334
514.00	0.031931
514.50	0.031133
515.00	0.030633
515.50	0.029912
516.00	0.029342
516.50	0.028840
517.00	0.028339
517.50	0.027781
518.00	0.027384
518.50	0.026394
519.00	0.026118
519.50	0.025523
520.00	0.025126
520.50	0.024512
521.00	0.023986
521.50	0.023438
522.00	0.023172
522.50	0.022472
523.00	0.022136
523.50	0.021517
524.00	0.021399
524.50	0.020580
525.00	0.020043
525.50	0.019647
526.00	0.019285
526.50	0.018671
527.00	0.018289
527.50	0.017803
528.00	0.017535
528.50	0.016868
529.00	0.016680
529.50	0.015932
530.00	0.015790
530.50	0.015401
531.00	0.014858
531.50	0.014429
532.00	0.014240
532.50	0.013731
533.00	0.013392
533.50	0.013134
534.00	0.012935
534.50	0.012470
535.00	0.012288
535.50	0.011907
536.00	0.011639
536.50	0.011391
537.00	0.011114
537.50	0.010727
538.00	0.010680
538.50	0.010307
539.00	0.010180
539.50	0.0098986
540.00	0.0097023
540.50	0.0093804
541.00	0.0092770
541.50	0.0088827
542.00	0.0087370
542.50	0.0086136
543.00	0.0085288
543.50	0.0082367
544.00	0.0080068
544.50	0.0077675
545.00	0.0077182
545.50	0.0072726
546.00	0.0074029
546.50	0.0071395
547.00	0.0069371
547.50	0.0068449
548.00	0.0068196
548.50	0.0065471
549.00	0.0064884
549.50	0.0063315
550.00	0.0063894
550.50	0.0060501
551.00	0.0059533
551.50	0.0058644
552.00	0.0057281
552.50	0.0055867
553.00	0.0054159
553.50	0.0053270
554.00	0.0053411
554.50	0.0050656
555.00	0.0050902
555.50	0.0049399
556.00	0.0048936
556.50	0.0048405
557.00	0.0047645
557.50	0.0046105
558.00	0.0046566
558.50	0.0044574
559.00	0.0044170
559.50	0.0044236
560.00	0.0043322
560.50	0.0041072
561.00	0.0041593
561.50	0.0040608
562.00	0.0040760
562.50	0.0039403
563.00	0.0038102
563.50	0.0037455
564.00	0.0036994
564.50	0.0036793
565.00	0.0035943
565.50	0.0035825
566.00	0.0035066
566.50	0.0033598
567.00	0.0033049
567.50	0.0032638
568.00	0.0032835
568.50	0.0032423
569.00	0.0031385
569.50	0.0031452
570.00	0.0030722
570.50	0.0030640
571.00	0.0029323
571.50	0.0028811
572.00	0.0027800
572.50	0.0027855
573.00	0.0028182
573.50	0.0027179
574.00	0.0026893
574.50	0.0026151
575.00	0.0026097
575.50	0.0025569
576.00	0.0025594
576.50	0.0025919
577.00	0.0024283
577.50	0.0024417
578.00	0.0023942
578.50	0.0023141
579.00	0.0022343
579.50	0.0022469
580.00	0.0022231
580.50	0.0021877
581.00	0.0021203
581.50	0.0021292
582.00	0.0021299
582.50	0.0021194
583.00	0.0020748
583.50	0.0019969
584.00	0.0020674
584.50	0.0019307
585.00	0.0019969
585.50	0.0019608
586.00	0.0019078
586.50	0.0019389
587.00	0.0019306
587.50	0.0019315
588.00	0.0018675
588.50	0.0018616
589.00	0.0018120
589.50	0.0018175
590.00	0.0017930
590.50	0.0017585
591.00	0.0017744
591.50	0.0017429
592.00	0.0017392
592.50	0.0017066
593.00	0.0016095
593.50	0.0017316
594.00	0.0016476
594.50	0.0016316
595.00	0.0016489
595.50	0.0016472
596.00	0.0016313
596.50	0.0015707
597.00	0.0015809
597.50	0.0016178
598.00	0.0016463
598.50	0.0016059
599.00	0.0015330
599.50	0.0015316
600.00	0.0015193
