Wavelength (nm)	C09 ems
435.00	0.0055470
435.50	0.0059939
436.00	0.0061840
436.50	0.0066686
437.00	0.0069689
437.50	0.0074669
438.00	0.0077558
438.50	0.0083929
439.00	0.0089600
439.50	0.0097298
440.00	0.010302
440.50	0.011294
441.00	0.012145
441.50	0.013689
442.00	0.014680
442.50	0.016511
443.00	0.017818
443.50	0.020642
444.00	0.022220
444.50	0.025260
445.00	0.027485
445.50	0.031778
446.00	0.034139
446.50	0.038839
447.00	0.042354
447.50	0.048759
448.00	0.052367
448.50	0.059296
449.00	0.064463
449.50	0.074131
450.00	0.079460
450.50	0.090199
451.00	0.098171
451.50	0.11304
452.00	0.12160
452.50	0.13803
453.00	0.15052
453.50	0.17250
454.00	0.18255
454.50	0.20935
455.00	0.22735
455.50	0.25909
456.00	0.27547
456.50	0.30868
457.00	0.33513
457.50	0.37490
458.00	0.39953
458.50	0.44186
459.00	0.47483
459.50	0.52654
460.00	0.55196
460.50	0.59922
461.00	0.63811
461.50	0.69054
462.00	0.71979
462.50	0.76656
463.00	0.80293
463.50	0.85091
464.00	0.87512
464.50	0.91196
465.00	0.93525
465.50	0.96590
466.00	0.97708
466.50	0.99192
467.00	0.99848
467.50	1.00000
468.00	0.99763
468.50	0.98780
469.00	0.98135
469.50	0.96264
470.00	0.95226
470.50	0.92905
471.00	0.91471
471.50	0.88616
472.00	0.87293
472.50	0.84631
473.00	0.82904
473.50	0.80160
474.00	0.78737
474.50	0.76177
475.00	0.74562
475.50	0.71639
476.00	0.70173
476.50	0.67736
477.00	0.65860
477.50	0.62958
478.00	0.61705
478.50	0.58930
479.00	0.57170
479.50	0.54478
480.00	0.53437
480.50	0.51350
481.00	0.49938
481.50	0.48146
482.00	0.47283
482.50	0.45991
483.00	0.45167
483.50	0.44208
484.00	0.43873
484.50	0.43334
485.00	0.43168
485.50	0.43011
486.00	0.43037
486.50	0.43248
487.00	0.43623
487.50	0.44250
488.00	0.44703
488.50	0.45535
489.00	0.46391
489.50	0.47677
490.00	0.48345
490.50	0.49814
491.00	0.50887
491.50	0.52559
492.00	0.53392
492.50	0.54940
493.00	0.56104
493.50	0.57590
494.00	0.58407
494.50	0.59715
495.00	0.60545
495.50	0.61564
496.00	0.62162
496.50	0.62850
497.00	0.63220
497.50	0.63648
498.00	0.63744
498.50	0.63793
499.00	0.63640
499.50	0.63381
500.00	0.63038
500.50	0.62521
501.00	0.62051
501.50	0.61117
502.00	0.60594
502.50	0.59526
503.00	0.58646
503.50	0.56811
504.00	0.56111
504.50	0.54557
505.00	0.53430
505.50	0.51640
506.00	0.50694
506.50	0.48980
507.00	0.47779
507.50	0.45909
508.00	0.44988
508.50	0.43604
509.00	0.42393
509.50	0.40919
510.00	0.40220
510.50	0.39000
511.00	0.37966
511.50	0.36719
512.00	0.36119
512.50	0.35054
513.00	0.34374
513.50	0.33359
514.00	0.32944
514.50	0.32107
515.00	0.31703
515.50	0.30860
516.00	0.30545
516.50	0.29896
517.00	0.29620
517.50	0.29057
518.00	0.28821
518.50	0.28399
519.00	0.28151
519.50	0.27756
520.00	0.27613
520.50	0.27214
521.00	0.27108
521.50	0.26832
522.00	0.26639
522.50	0.26349
523.00	0.26222
523.50	0.25919
524.00	0.25773
524.50	0.25611
525.00	0.25457
525.50	0.25248
526.00	0.25192
526.50	0.25026
527.00	0.24889
527.50	0.24731
528.00	0.24689
528.50	0.24564
529.00	0.24432
529.50	0.24239
530.00	0.24203
530.50	0.24022
531.00	0.23882
531.50	0.23654
532.00	0.23566
532.50	0.23375
533.00	0.23162
533.50	0.22864
534.00	0.22756
534.50	0.22418
535.00	0.22197
535.50	0.21839
536.00	0.21587
536.50	0.21319
537.00	0.21008
537.50	0.20602
538.00	0.20339
538.50	0.19899
539.00	0.19587
539.50	0.19051
540.00	0.18824
540.50	0.18344
541.00	0.17982
541.50	0.17477
542.00	0.17165
542.50	0.16738
543.00	0.16439
543.50	0.15890
544.00	0.15637
544.50	0.15207
545.00	0.14884
545.50	0.14398
546.00	0.14156
546.50	0.13757
547.00	0.13498
547.50	0.13040
548.00	0.12830
548.50	0.12505
549.00	0.12297
549.50	0.11894
550.00	0.11710
550.50	0.11456
551.00	0.11192
551.50	0.10918
552.00	0.10789
552.50	0.10535
553.00	0.10372
553.50	0.10133
554.00	0.10025
554.50	0.098311
555.00	0.096858
555.50	0.094843
556.00	0.094077
556.50	0.092613
557.00	0.091811
557.50	0.089904
558.00	0.089280
558.50	0.087899
559.00	0.086672
559.50	0.085485
560.00	0.084513
560.50	0.083545
561.00	0.082566
561.50	0.081242
562.00	0.080541
562.50	0.079107
563.00	0.078568
563.50	0.076932
564.00	0.076399
564.50	0.075331
565.00	0.074543
565.50	0.072672
566.00	0.072510
566.50	0.071194
567.00	0.070471
567.50	0.069018
568.00	0.068542
568.50	0.067366
569.00	0.066723
569.50	0.065175
570.00	0.064566
570.50	0.063039
571.00	0.062393
571.50	0.061415
572.00	0.060353
572.50	0.059193
573.00	0.058546
573.50	0.057040
574.00	0.056325
574.50	0.055249
575.00	0.054450
575.50	0.053137
576.00	0.052721
576.50	0.051157
577.00	0.050433
577.50	0.048973
578.00	0.048285
578.50	0.047261
579.00	0.046277
579.50	0.045291
580.00	0.044668
580.50	0.044046
581.00	0.043039
581.50	0.041795
582.00	0.041436
582.50	0.040618
583.00	0.039749
583.50	0.038849
584.00	0.038231
584.50	0.037377
585.00	0.036547
585.50	0.035691
586.00	0.035280
586.50	0.034128
587.00	0.033678
587.50	0.032546
588.00	0.032088
588.50	0.031309
589.00	0.030825
589.50	0.030044
590.00	0.029580
590.50	0.028853
591.00	0.028556
591.50	0.027700
592.00	0.027388
592.50	0.026871
593.00	0.026146
593.50	0.025785
594.00	0.025371
594.50	0.024760
595.00	0.024518
595.50	0.023817
596.00	0.023414
596.50	0.023270
597.00	0.022605
597.50	0.022226
598.00	0.022018
598.50	0.021598
599.00	0.021208
599.50	0.020662
600.00	0.020543
600.50	0.020084
601.00	0.019699
601.50	0.019290
602.00	0.019289
602.50	0.018835
603.00	0.018646
603.50	0.018154
604.00	0.018005
604.50	0.017717
605.00	0.017372
605.50	0.017215
606.00	0.017119
606.50	0.016878
607.00	0.016455
607.50	0.016179
608.00	0.016095
608.50	0.015835
609.00	0.015678
609.50	0.015383
610.00	0.015083
610.50	0.014826
611.00	0.014607
611.50	0.014212
612.00	0.014089
612.50	0.013763
613.00	0.013561
613.50	0.013440
614.00	0.013155
614.50	0.012962
615.00	0.012763
615.50	0.012307
616.00	0.012344
616.50	0.011981
617.00	0.011967
617.50	0.011712
618.00	0.011505
618.50	0.011307
619.00	0.011114
619.50	0.010815
620.00	0.010836
620.50	0.010532
621.00	0.010376
621.50	0.010100
622.00	0.0099902
622.50	0.0099176
623.00	0.0097584
623.50	0.0094328
624.00	0.0094796
624.50	0.0091743
625.00	0.0089607
625.50	0.0088172
626.00	0.0086371
626.50	0.0084774
627.00	0.0082231
627.50	0.0080269
628.00	0.0079699
628.50	0.0078772
629.00	0.0078458
629.50	0.0075854
630.00	0.0075173
630.50	0.0073304
631.00	0.0072856
631.50	0.0071810
632.00	0.0070196
632.50	0.0068303
633.00	0.0068548
633.50	0.0067630
634.00	0.0065409
634.50	0.0063539
635.00	0.0063117
635.50	0.0063061
636.00	0.0061383
636.50	0.0059751
637.00	0.0059382
637.50	0.0057512
638.00	0.0057632
638.50	0.0056616
639.00	0.0055489
639.50	0.0054815
640.00	0.0053813
640.50	0.0053285
641.00	0.0052109
641.50	0.0051421
642.00	0.0051591
642.50	0.0049492
643.00	0.0048727
643.50	0.0049450
644.00	0.0047913
644.50	0.0047111
645.00	0.0047238
645.50	0.0045640
646.00	0.0045169
646.50	0.0044662
647.00	0.0044571
647.50	0.0044194
648.00	0.0042642
648.50	0.0043188
649.00	0.0041965
649.50	0.0041037
650.00	0.0040799
