Wavelength (nm)	D07 abs N
290.00	0.45883
290.25	0.46102
290.50	0.46164
290.75	0.46757
291.00	0.46691
291.25	0.47010
291.50	0.47201
291.75	0.47444
292.00	0.47657
292.25	0.47809
292.50	0.47969
292.75	0.47884
293.00	0.48077
293.25	0.48046
293.50	0.48537
293.75	0.48754
294.00	0.48772
294.25	0.48920
294.50	0.48961
294.75	0.49019
295.00	0.48981
295.25	0.49089
295.50	0.49399
295.75	0.49569
296.00	0.49742
296.25	0.49830
296.50	0.49985
296.75	0.49837
297.00	0.49876
297.25	0.50222
297.50	0.50347
297.75	0.50228
298.00	0.50279
298.25	0.50341
298.50	0.50144
298.75	0.50333
299.00	0.50306
299.25	0.50415
299.50	0.50601
299.75	0.50422
300.00	0.50373
300.25	0.50468
300.50	0.50515
300.75	0.50451
301.00	0.50353
301.25	0.50277
301.50	0.50202
301.75	0.50088
302.00	0.49918
302.25	0.49838
302.50	0.49647
302.75	0.49670
303.00	0.49842
303.25	0.49341
303.50	0.49295
303.75	0.49278
304.00	0.48806
304.25	0.48838
304.50	0.48972
304.75	0.48438
305.00	0.48413
305.25	0.48269
305.50	0.48204
305.75	0.47789
306.00	0.47540
306.25	0.47469
306.50	0.47388
306.75	0.47005
307.00	0.46754
307.25	0.46471
307.50	0.46145
307.75	0.46025
308.00	0.45766
308.25	0.45478
308.50	0.45475
308.75	0.44869
309.00	0.44694
309.25	0.44637
309.50	0.44422
309.75	0.44166
310.00	0.43873
310.25	0.42842
310.50	0.43379
310.75	0.42680
311.00	0.42104
311.25	0.42262
311.50	0.42452
311.75	0.40891
312.00	0.41025
312.25	0.41303
312.50	0.41398
312.75	0.41120
313.00	0.40276
313.25	0.40009
313.50	0.40464
313.75	0.39671
314.00	0.39041
314.25	0.39233
314.50	0.38763
314.75	0.37691
315.00	0.37414
315.25	0.38364
315.50	0.37556
315.75	0.36908
316.00	0.36765
316.25	0.35975
316.50	0.35932
316.75	0.35222
317.00	0.33926
317.25	0.34508
317.50	0.34452
317.75	0.33899
318.00	0.33915
318.25	0.33036
318.50	0.33365
318.75	0.32612
319.00	0.32034
319.25	0.31910
319.50	0.31513
319.75	0.30834
320.00	0.31070
320.25	0.30003
320.50	0.30722
320.75	0.30549
321.00	0.29986
321.25	0.29363
321.50	0.29127
321.75	0.29768
322.00	0.28748
322.25	0.28867
322.50	0.28457
322.75	0.28114
323.00	0.26730
323.25	0.27448
323.50	0.26552
323.75	0.26830
324.00	0.26618
324.25	0.26226
324.50	0.25772
324.75	0.25727
325.00	0.25452
325.25	0.24879
325.50	0.24960
325.75	0.24446
326.00	0.24559
326.25	0.23816
326.50	0.24025
326.75	0.23972
327.00	0.23476
327.25	0.22857
327.50	0.23095
327.75	0.22296
328.00	0.22489
328.25	0.21877
328.50	0.22040
328.75	0.21492
329.00	0.21320
329.25	0.21204
329.50	0.22072
329.75	0.20471
330.00	0.20357
330.25	0.19793
330.50	0.20767
330.75	0.20397
331.00	0.19447
331.25	0.19426
331.50	0.19013
331.75	0.19765
332.00	0.18819
332.25	0.18944
332.50	0.18658
332.75	0.18651
333.00	0.18531
333.25	0.18006
333.50	0.17802
333.75	0.17974
334.00	0.17816
334.25	0.17332
334.50	0.17355
334.75	0.16936
335.00	0.17213
335.25	0.17249
335.50	0.17354
335.75	0.16727
336.00	0.16649
336.25	0.16189
336.50	0.16545
336.75	0.15954
337.00	0.16224
337.25	0.16022
337.50	0.16051
337.75	0.15629
338.00	0.16025
338.25	0.15871
338.50	0.15271
338.75	0.15377
339.00	0.15112
339.25	0.14968
339.50	0.14738
339.75	0.15162
340.00	0.14981
340.25	0.14988
340.50	0.14227
340.75	0.14721
341.00	0.14526
341.25	0.14463
341.50	0.14274
341.75	0.14356
342.00	0.14177
342.25	0.13784
342.50	0.13985
342.75	0.14189
343.00	0.14328
343.25	0.14194
343.50	0.13556
343.75	0.13926
344.00	0.14053
344.25	0.13290
344.50	0.13941
344.75	0.13345
345.00	0.14105
345.25	0.14001
345.50	0.13963
345.75	0.13720
346.00	0.13989
346.25	0.13674
346.50	0.13681
346.75	0.13982
347.00	0.13773
347.25	0.13679
347.50	0.13488
347.75	0.13633
348.00	0.13605
348.25	0.13846
348.50	0.13952
348.75	0.13716
349.00	0.14121
349.25	0.14047
349.50	0.14118
349.75	0.14110
350.00	0.13657
350.25	0.14025
350.50	0.14182
350.75	0.14366
351.00	0.14450
351.25	0.14257
351.50	0.14534
351.75	0.14557
352.00	0.14642
352.25	0.14560
352.50	0.14734
352.75	0.15000
353.00	0.14955
353.25	0.15344
353.50	0.15655
353.75	0.14849
354.00	0.15510
354.25	0.15469
354.50	0.15484
354.75	0.15851
355.00	0.15995
355.25	0.16339
355.50	0.16224
355.75	0.16194
356.00	0.16339
356.25	0.16685
356.50	0.16776
356.75	0.16545
357.00	0.16910
357.25	0.16998
357.50	0.17502
357.75	0.17511
358.00	0.17760
358.25	0.17417
358.50	0.18486
358.75	0.18610
359.00	0.18585
359.25	0.19049
359.50	0.18791
359.75	0.19239
360.00	0.19420
360.25	0.19238
360.50	0.19470
360.75	0.19667
361.00	0.19951
361.25	0.20409
361.50	0.20607
361.75	0.21072
362.00	0.21094
362.25	0.21336
362.50	0.20940
362.75	0.21379
363.00	0.21576
363.25	0.22162
363.50	0.22069
363.75	0.22861
364.00	0.22836
364.25	0.22742
364.50	0.22879
364.75	0.23203
365.00	0.23443
365.25	0.23855
365.50	0.24012
365.75	0.24037
366.00	0.24548
366.25	0.24837
366.50	0.24968
366.75	0.25006
367.00	0.25532
367.25	0.26146
367.50	0.26027
367.75	0.26445
368.00	0.26664
368.25	0.26880
368.50	0.27092
368.75	0.27273
369.00	0.27752
369.25	0.28145
369.50	0.28121
369.75	0.28634
370.00	0.28757
370.25	0.28954
370.50	0.29366
370.75	0.29323
371.00	0.29761
371.25	0.30208
371.50	0.30488
371.75	0.30713
372.00	0.30901
372.25	0.31295
372.50	0.31677
372.75	0.32403
373.00	0.32369
373.25	0.32396
373.50	0.32834
373.75	0.33408
374.00	0.33361
374.25	0.33338
374.50	0.33740
374.75	0.33991
375.00	0.33556
375.25	0.34611
375.50	0.34787
375.75	0.35181
376.00	0.35562
376.25	0.36283
376.50	0.36359
376.75	0.37156
377.00	0.37613
377.25	0.37417
377.50	0.37792
377.75	0.38234
378.00	0.38451
378.25	0.38557
378.50	0.39323
378.75	0.39599
379.00	0.39962
379.25	0.40073
379.50	0.40436
379.75	0.40969
380.00	0.41333
380.25	0.41732
380.50	0.41937
380.75	0.41749
381.00	0.42830
381.25	0.42843
381.50	0.43643
381.75	0.43766
382.00	0.44146
382.25	0.44721
382.50	0.44901
382.75	0.45229
383.00	0.45389
383.25	0.45958
383.50	0.45951
383.75	0.46499
384.00	0.47058
384.25	0.47450
384.50	0.47543
384.75	0.48177
385.00	0.48621
385.25	0.49159
385.50	0.49144
385.75	0.49809
386.00	0.50438
386.25	0.50538
386.50	0.50504
386.75	0.51659
387.00	0.51668
387.25	0.52274
387.50	0.52471
387.75	0.52779
388.00	0.53272
388.25	0.53402
388.50	0.54180
388.75	0.54480
389.00	0.54731
389.25	0.55479
389.50	0.55837
389.75	0.56012
390.00	0.56520
390.25	0.56936
390.50	0.57431
390.75	0.57530
391.00	0.57713
391.25	0.58557
391.50	0.59116
391.75	0.59316
392.00	0.59418
392.25	0.60182
392.50	0.60581
392.75	0.60674
393.00	0.61170
393.25	0.61102
393.50	0.61545
393.75	0.62361
394.00	0.62733
394.25	0.63107
394.50	0.63239
394.75	0.63788
395.00	0.64667
395.25	0.64758
395.50	0.65241
395.75	0.65657
396.00	0.66332
396.25	0.66567
396.50	0.67012
396.75	0.66979
397.00	0.67755
397.25	0.68360
397.50	0.68365
397.75	0.68820
398.00	0.69478
398.25	0.69401
398.50	0.69760
398.75	0.70455
399.00	0.70331
399.25	0.70910
399.50	0.71211
399.75	0.71708
400.00	0.72217
400.25	0.72593
400.50	0.72819
400.75	0.73248
401.00	0.73620
401.25	0.73612
401.50	0.74049
401.75	0.74793
402.00	0.74729
402.25	0.75092
402.50	0.75551
402.75	0.75926
403.00	0.76313
403.25	0.76816
403.50	0.77291
403.75	0.77335
404.00	0.77674
404.25	0.78048
404.50	0.78401
404.75	0.78773
405.00	0.79053
405.25	0.79544
405.50	0.79683
405.75	0.79900
406.00	0.80414
406.25	0.80879
406.50	0.81236
406.75	0.81561
407.00	0.81459
407.25	0.82363
407.50	0.82430
407.75	0.82565
408.00	0.82827
408.25	0.83224
408.50	0.83539
408.75	0.84039
409.00	0.83960
409.25	0.84476
409.50	0.84808
409.75	0.84922
410.00	0.85072
410.25	0.85874
410.50	0.86898
410.75	0.86157
411.00	0.86489
411.25	0.87015
411.50	0.87157
411.75	0.87869
412.00	0.87592
412.25	0.88292
412.50	0.88393
412.75	0.88862
413.00	0.88866
413.25	0.89699
413.50	0.89747
413.75	0.89637
414.00	0.90182
414.25	0.90608
414.50	0.90334
414.75	0.90362
415.00	0.90860
415.25	0.91037
415.50	0.91446
415.75	0.91775
416.00	0.91855
416.25	0.92133
416.50	0.92054
416.75	0.92572
417.00	0.92537
417.25	0.92658
417.50	0.93207
417.75	0.93509
418.00	0.93741
418.25	0.93793
418.50	0.94166
418.75	0.94159
419.00	0.94419
419.25	0.94489
419.50	0.94885
419.75	0.95009
420.00	0.95014
420.25	0.95932
420.50	0.95857
420.75	0.95704
421.00	0.95856
421.25	0.96315
421.50	0.96769
421.75	0.96669
422.00	0.96625
422.25	0.96731
422.50	0.97071
422.75	0.97331
423.00	0.96996
423.25	0.97458
423.50	0.97477
423.75	0.97813
424.00	0.97714
424.25	0.98038
424.50	0.98403
424.75	0.98046
425.00	0.98076
425.25	0.98126
425.50	0.98030
425.75	0.98242
426.00	0.98495
426.25	0.99012
426.50	0.98989
426.75	0.98995
427.00	0.99004
427.25	0.98914
427.50	0.98766
427.75	0.99196
428.00	0.99229
428.25	0.99446
428.50	0.99384
428.75	0.99499
429.00	0.99415
429.25	0.99247
429.50	0.99522
429.75	0.99719
430.00	0.99424
430.25	0.99430
430.50	0.99408
430.75	0.99434
431.00	0.99381
431.25	0.99628
431.50	0.99507
431.75	0.99676
432.00	0.99676
432.25	1.0000
432.50	0.99528
432.75	0.98952
433.00	0.99649
433.25	0.99196
433.50	0.99616
433.75	0.99398
434.00	0.99562
434.25	0.99148
434.50	0.99287
434.75	0.99387
435.00	0.99259
435.25	0.98969
435.50	0.98845
435.75	0.98917
436.00	0.98536
436.25	0.98700
436.50	0.98364
436.75	0.98730
437.00	0.98250
437.25	0.98344
437.50	0.98640
437.75	0.97618
438.00	0.97878
438.25	0.97899
438.50	0.97700
438.75	0.97871
439.00	0.97531
439.25	0.97795
439.50	0.97017
439.75	0.96852
440.00	0.96789
440.25	0.96937
440.50	0.96905
440.75	0.96435
441.00	0.95890
441.25	0.96321
441.50	0.95940
441.75	0.95711
442.00	0.95863
442.25	0.95642
442.50	0.95346
442.75	0.95343
443.00	0.95001
443.25	0.95009
443.50	0.94450
443.75	0.94163
444.00	0.94086
444.25	0.93883
444.50	0.93402
444.75	0.93449
445.00	0.93112
445.25	0.93081
445.50	0.92788
445.75	0.92170
446.00	0.92375
446.25	0.91991
446.50	0.91798
446.75	0.91608
447.00	0.91034
447.25	0.91122
447.50	0.90640
447.75	0.90299
448.00	0.90088
448.25	0.89692
448.50	0.89455
448.75	0.89830
449.00	0.89246
449.25	0.88481
449.50	0.88343
449.75	0.88154
450.00	0.87928
450.25	0.87660
450.50	0.87164
450.75	0.86718
451.00	0.86868
451.25	0.86901
451.50	0.85906
451.75	0.85702
452.00	0.85428
452.25	0.85152
452.50	0.84603
452.75	0.84557
453.00	0.83952
453.25	0.84115
453.50	0.83390
453.75	0.82979
454.00	0.82630
454.25	0.82445
454.50	0.82574
454.75	0.82160
455.00	0.81732
455.25	0.81155
455.50	0.81081
455.75	0.80411
456.00	0.79967
456.25	0.79657
456.50	0.79423
456.75	0.78927
457.00	0.78474
457.25	0.78085
457.50	0.77894
457.75	0.77414
458.00	0.76944
458.25	0.76534
458.50	0.76559
458.75	0.75880
459.00	0.75290
459.25	0.74995
459.50	0.74592
459.75	0.74255
460.00	0.73786
460.25	0.73437
460.50	0.73095
460.75	0.72590
461.00	0.72148
461.25	0.71477
461.50	0.71237
461.75	0.70974
462.00	0.70428
462.25	0.69975
462.50	0.69816
462.75	0.69470
463.00	0.68736
463.25	0.68220
463.50	0.67766
463.75	0.67456
464.00	0.67347
464.25	0.66581
464.50	0.66237
464.75	0.65801
465.00	0.65476
465.25	0.64858
465.50	0.64429
465.75	0.64082
466.00	0.63666
466.25	0.63248
466.50	0.62710
466.75	0.62317
467.00	0.62112
467.25	0.61503
467.50	0.61073
467.75	0.60409
468.00	0.60110
468.25	0.60038
468.50	0.59397
468.75	0.58983
469.00	0.58552
469.25	0.58009
469.50	0.57518
469.75	0.57200
470.00	0.56611
470.25	0.56258
470.50	0.55668
470.75	0.55426
471.00	0.54895
471.25	0.54253
471.50	0.53831
471.75	0.53334
472.00	0.53155
472.25	0.52587
472.50	0.52400
472.75	0.51599
473.00	0.51170
473.25	0.50908
473.50	0.50463
473.75	0.50249
474.00	0.49562
474.25	0.49063
474.50	0.48750
474.75	0.48306
475.00	0.47605
475.25	0.47081
475.50	0.46847
475.75	0.46163
476.00	0.45808
476.25	0.45081
476.50	0.44823
476.75	0.44384
477.00	0.43827
477.25	0.43340
477.50	0.42908
477.75	0.42660
478.00	0.42455
478.25	0.41725
478.50	0.41233
478.75	0.41043
479.00	0.40649
479.25	0.40217
479.50	0.39806
479.75	0.39264
480.00	0.39040
480.25	0.38671
480.50	0.38241
480.75	0.37785
481.00	0.37310
481.25	0.36887
481.50	0.36385
481.75	0.35938
482.00	0.35828
482.25	0.35577
482.50	0.34732
482.75	0.34260
483.00	0.34086
483.25	0.33784
483.50	0.33472
483.75	0.33119
484.00	0.32813
484.25	0.32349
484.50	0.31776
484.75	0.31515
485.00	0.30956
485.25	0.30607
485.50	0.30305
485.75	0.29959
486.00	0.29710
486.25	0.29278
486.50	0.29053
486.75	0.28415
487.00	0.28058
487.25	0.27912
487.50	0.27496
487.75	0.27078
488.00	0.26509
488.25	0.26404
488.50	0.25948
488.75	0.25778
489.00	0.25375
489.25	0.25120
489.50	0.24691
489.75	0.24293
490.00	0.23874
490.25	0.23574
490.50	0.23343
490.75	0.22822
491.00	0.22668
491.25	0.22420
491.50	0.21897
491.75	0.21616
492.00	0.21249
492.25	0.20875
492.50	0.20728
492.75	0.20311
493.00	0.19942
493.25	0.19659
493.50	0.19475
493.75	0.19205
494.00	0.19011
494.25	0.18881
494.50	0.18516
494.75	0.18428
495.00	0.17809
495.25	0.17814
495.50	0.17373
495.75	0.17100
496.00	0.16844
496.25	0.16604
496.50	0.16652
496.75	0.16130
497.00	0.15624
497.25	0.15721
497.50	0.15116
497.75	0.14768
498.00	0.14884
498.25	0.14523
498.50	0.14155
498.75	0.13934
499.00	0.13767
499.25	0.13480
499.50	0.13104
499.75	0.13038
500.00	0.12833
500.25	0.12820
500.50	0.12383
500.75	0.12202
501.00	0.11924
501.25	0.11416
501.50	0.11551
501.75	0.11239
502.00	0.11069
502.25	0.10911
502.50	0.10648
502.75	0.10470
503.00	0.10167
503.25	0.10127
503.50	0.097912
503.75	0.097744
504.00	0.096539
504.25	0.093735
504.50	0.093007
504.75	0.091876
505.00	0.089802
505.25	0.084055
505.50	0.084382
505.75	0.080972
506.00	0.083831
506.25	0.080879
506.50	0.077636
506.75	0.075712
507.00	0.076394
507.25	0.074805
507.50	0.071488
507.75	0.070358
508.00	0.068564
508.25	0.068554
508.50	0.068339
508.75	0.064994
509.00	0.063369
509.25	0.062341
509.50	0.061360
509.75	0.060724
510.00	0.057267
510.25	0.060958
510.50	0.057454
510.75	0.057211
511.00	0.055595
511.25	0.050736
511.50	0.052390
511.75	0.049746
512.00	0.049241
512.25	0.048877
512.50	0.047998
512.75	0.047774
513.00	0.047606
513.25	0.044289
513.50	0.044401
513.75	0.044476
514.00	0.042542
514.25	0.042439
514.50	0.041561
514.75	0.041504
515.00	0.039701
515.25	0.038290
515.50	0.037244
515.75	0.036281
516.00	0.033123
516.25	0.031965
516.50	0.034170
516.75	0.036506
517.00	0.033366
517.25	0.033917
517.50	0.032488
517.75	0.031348
518.00	0.027900
518.25	0.029806
518.50	0.028993
518.75	0.025985
519.00	0.027713
519.25	0.026162
519.50	0.027704
519.75	0.025041
520.00	0.027339
520.25	0.023238
520.50	0.025312
520.75	0.023350
521.00	0.021593
521.25	0.023509
521.50	0.020248
521.75	0.022303
522.00	0.020593
522.25	0.022836
522.50	0.018753
522.75	0.022584
523.00	0.022247
523.25	0.020369
523.50	0.019827
523.75	0.018678
524.00	0.017538
524.25	0.019117
524.50	0.016202
524.75	0.016351
525.00	0.016146
525.25	0.016136
525.50	0.017398
525.75	0.013474
526.00	0.015464
526.25	0.015408
526.50	0.015781
526.75	0.013885
527.00	0.015249
527.25	0.014613
527.50	0.012586
527.75	0.013632
528.00	0.013614
528.25	0.011110
528.50	0.013576
528.75	0.012913
529.00	0.011418
529.25	0.013259
529.50	0.012035
529.75	0.010157
530.00	0.012259
530.25	0.010857
530.50	0.0099416
530.75	0.011119
531.00	0.0098762
531.25	0.0099510
531.50	0.0082598
531.75	0.0084186
532.00	0.0094558
532.25	0.0095399
532.50	0.010007
532.75	0.0084373
533.00	0.010857
533.25	0.0096053
533.50	0.0094745
533.75	0.0081570
534.00	0.0095305
534.25	0.0052511
534.50	0.0076431
534.75	0.0087363
535.00	0.0081383
535.25	0.010736
535.50	0.0059239
535.75	0.0090633
536.00	0.0052138
536.25	0.0095866
536.50	0.0055314
536.75	0.0082972
537.00	0.0084840
537.25	0.0045971
537.50	0.0054006
537.75	0.0057463
538.00	0.0065873
538.25	0.0064471
538.50	0.0069797
538.75	0.0067181
539.00	0.0083065
539.25	0.0043355
539.50	0.0060827
539.75	0.0057557
540.00	0.0077552
540.25	0.0074095
540.50	0.0067928
540.75	0.0041486
541.00	0.0076244
541.25	0.0049802
541.50	0.0057557
541.75	0.0052792
542.00	0.0031955
542.25	0.0077085
542.50	0.0025415
542.75	0.0076431
543.00	0.0043074
543.25	0.0063163
543.50	0.0054567
543.75	0.0050829
544.00	0.0066153
544.25	0.0040365
544.50	0.0055782
544.75	0.0048867
545.00	0.0038870
545.25	0.0070077
545.50	0.0050829
545.75	0.0041486
546.00	0.0033917
546.25	0.0029713
546.50	0.0032796
546.75	0.0047092
547.00	0.0031021
547.25	0.0049148
547.50	0.0045317
547.75	0.0038963
548.00	0.0039430
548.25	0.0042233
548.50	0.0045130
548.75	0.0047933
549.00	0.0043635
549.25	0.0040178
549.50	0.0027751
549.75	0.0039710
550.00	0.0025321
550.25	0.0019809
550.50	0.0011586
550.75	0.0028218
551.00	0.0036066
551.25	0.0056903
551.50	0.0047092
551.75	0.0042140
552.00	0.0046158
552.25	0.0022705
552.50	0.0060080
552.75	0.0021584
553.00	0.0043355
553.25	0.0057463
553.50	0.0040084
553.75	0.0041205
554.00	0.0030180
554.25	0.0029993
554.50	0.0036253
554.75	0.0057463
555.00	0.0061855
555.25	0.0057090
555.50	0.0045130
555.75	0.0027097
556.00	0.0027751
556.25	0.0049988
556.50	-0.00058865
556.75	0.0047933
557.00	0.0013268
557.25	0.0022425
557.50	0.0046344
557.75	0.0033637
558.00	0.0027937
558.25	0.0032142
558.50	0.0043635
558.75	0.00073815
559.00	0.0048680
559.25	0.00060734
559.50	0.0033824
559.75	0.0040832
560.00	0.0048961
560.25	0.0031301
560.50	0.0051483
560.75	0.0073628
561.00	0.0045130
561.25	0.0035599
561.50	0.0022705
561.75	0.0031395
562.00	0.0026069
562.25	0.0017192
562.50	0.0015791
562.75	0.0047933
563.00	0.0033917
563.25	0.0052044
563.50	0.0039804
563.75	0.0025321
564.00	0.0056529
564.25	0.0033917
564.50	0.0047746
564.75	0.0048961
565.00	0.0034385
565.25	0.0029339
565.50	0.0044476
565.75	0.0027003
566.00	0.0042794
566.25	0.0035599
566.50	0.0036160
566.75	0.0028498
567.00	0.0043074
567.25	0.0059332
567.50	0.0029993
567.75	0.0025975
568.00	0.00069143
568.25	0.0056155
568.50	0.0013735
568.75	0.0038589
569.00	0.00085962
569.25	0.0029432
569.50	0.0063911
569.75	0.0050456
570.00	0.0028685
570.25	0.0035412
570.50	0.0029526
570.75	0.0032983
571.00	0.0035693
571.25	0.0017286
571.50	0.0044849
571.75	0.0046344
572.00	0.0043261
572.25	0.0055875
572.50	0.0025602
572.75	0.0038963
573.00	0.0035973
573.25	0.0029152
573.50	0.0055314
573.75	0.0036534
574.00	0.0028685
574.25	0.0012520
574.50	0.0052978
574.75	0.0027097
575.00	0.0060266
575.25	0.0037468
575.50	0.0041486
575.75	0.0025602
576.00	0.0014015
576.25	0.0056062
576.50	0.0013735
576.75	0.0040551
577.00	0.0042327
577.25	0.0036347
577.50	0.0020649
577.75	0.0036534
578.00	0.0043355
578.25	0.0013642
578.50	0.0062976
578.75	0.0047746
579.00	0.0059706
579.25	0.0034571
579.50	0.0027190
579.75	0.0012240
580.00	0.0020369
580.25	0.0052511
580.50	0.0039243
580.75	0.0035132
581.00	0.0028498
581.25	0.0048587
581.50	0.0047466
581.75	0.0020463
582.00	0.0032796
582.25	0.0036160
582.50	0.0032609
582.75	0.0039150
583.00	0.0034758
583.25	0.0054380
583.50	0.0018968
583.75	0.0036160
584.00	0.0017659
584.25	0.0039991
584.50	0.0059426
584.75	0.0052792
585.00	0.0024761
585.25	0.0045597
585.50	0.0060360
585.75	0.0026256
586.00	0.0038309
586.25	0.0027097
586.50	0.0045223
586.75	0.0043261
587.00	0.0056996
587.25	0.0027844
587.50	0.0022051
587.75	0.0060827
588.00	0.0046344
588.25	0.0020836
588.50	0.0048307
588.75	0.0054193
589.00	0.0034665
589.25	0.0041392
589.50	0.0018314
589.75	0.00071012
590.00	0.0052511
590.25	0.0038683
590.50	0.0028498
590.75	0.0079234
591.00	0.0047185
591.25	0.0038309
591.50	0.0021397
591.75	0.0041766
592.00	0.0020930
592.25	0.0032329
592.50	0.0012988
592.75	0.0026349
593.00	0.0063443
593.25	0.0034852
593.50	0.0036253
593.75	0.0058585
594.00	0.0036066
594.25	0.0042046
594.50	0.0018594
594.75	0.0053819
595.00	0.0025882
595.25	0.0043168
595.50	0.0036907
595.75	0.0045597
596.00	0.0054660
596.25	0.0029713
596.50	0.0043915
596.75	0.0046625
597.00	0.0046718
597.25	0.0045036
597.50	0.0041486
597.75	0.0035039
598.00	0.0019809
598.25	0.0057090
598.50	0.0027937
598.75	0.0043355
599.00	0.0061668
599.25	0.0040271
599.50	0.0049334
599.75	0.0031114
600.00	0.0052978
