Wavelength (nm)	D10 abs N
200.00	0.63458
201.00	0.61349
202.00	0.59550
203.00	0.57963
204.00	0.56658
205.00	0.55343
206.00	0.54055
207.00	0.52731
208.00	0.51318
209.00	0.49948
210.00	0.48467
211.00	0.46871
212.00	0.45223
213.00	0.43618
214.00	0.42005
215.00	0.40539
216.00	0.39116
217.00	0.37656
218.00	0.36209
219.00	0.34849
220.00	0.33544
221.00	0.32323
222.00	0.31294
223.00	0.30242
224.00	0.29178
225.00	0.28205
226.00	0.27219
227.00	0.26386
228.00	0.25652
229.00	0.25063
230.00	0.24468
231.00	0.23929
232.00	0.23476
233.00	0.23030
234.00	0.22651
235.00	0.22397
236.00	0.22177
237.00	0.21970
238.00	0.21833
239.00	0.21708
240.00	0.21588
241.00	0.21472
242.00	0.21401
243.00	0.21328
244.00	0.21257
245.00	0.21156
246.00	0.21042
247.00	0.20947
248.00	0.20816
249.00	0.20749
250.00	0.20677
251.00	0.20677
252.00	0.20707
253.00	0.20760
254.00	0.20807
255.00	0.20851
256.00	0.20869
257.00	0.20849
258.00	0.20848
259.00	0.20959
260.00	0.21006
261.00	0.21122
262.00	0.21244
263.00	0.21422
264.00	0.21627
265.00	0.21795
266.00	0.21959
267.00	0.22071
268.00	0.22057
269.00	0.22055
270.00	0.22020
271.00	0.22027
272.00	0.21961
273.00	0.21853
274.00	0.21702
275.00	0.21465
276.00	0.21266
277.00	0.21082
278.00	0.20904
279.00	0.20639
280.00	0.20330
281.00	0.20044
282.00	0.19682
283.00	0.19305
284.00	0.18913
285.00	0.18431
286.00	0.17953
287.00	0.17395
288.00	0.16872
289.00	0.16378
290.00	0.15898
291.00	0.15440
292.00	0.14960
293.00	0.14463
294.00	0.14022
295.00	0.13610
296.00	0.13230
297.00	0.12813
298.00	0.12427
299.00	0.12078
300.00	0.11756
301.00	0.11493
302.00	0.11239
303.00	0.11076
304.00	0.10876
305.00	0.10735
306.00	0.10651
307.00	0.10539
308.00	0.10502
309.00	0.10528
310.00	0.10545
311.00	0.10559
312.00	0.10589
313.00	0.10623
314.00	0.10735
315.00	0.10811
316.00	0.10939
317.00	0.10971
318.00	0.11065
319.00	0.11089
320.00	0.11303
321.00	0.11348
322.00	0.11437
323.00	0.11519
324.00	0.11627
325.00	0.11739
326.00	0.11881
327.00	0.12039
328.00	0.12197
329.00	0.12349
330.00	0.12448
331.00	0.12580
332.00	0.12708
333.00	0.12818
334.00	0.12927
335.00	0.13000
336.00	0.13058
337.00	0.13183
338.00	0.13260
339.00	0.13324
340.00	0.13410
341.00	0.13441
342.00	0.13470
343.00	0.13556
344.00	0.13655
345.00	0.13749
346.00	0.13787
347.00	0.13869
348.00	0.13982
349.00	0.14125
350.00	0.14207
351.00	0.14387
352.00	0.14581
353.00	0.14772
354.00	0.14933
355.00	0.15037
356.00	0.15238
357.00	0.15500
358.00	0.15710
359.00	0.15948
360.00	0.16169
361.00	0.16413
362.00	0.16643
363.00	0.16926
364.00	0.17251
365.00	0.17587
366.00	0.17960
367.00	0.18457
368.00	0.18997
369.00	0.19566
370.00	0.20253
371.00	0.21007
372.00	0.21608
373.00	0.22462
374.00	0.23161
375.00	0.23981
376.00	0.24742
377.00	0.25378
378.00	0.26095
379.00	0.26699
380.00	0.27337
381.00	0.27952
382.00	0.28437
383.00	0.29036
384.00	0.29595
385.00	0.30220
386.00	0.31024
387.00	0.31769
388.00	0.32716
389.00	0.33685
390.00	0.34819
391.00	0.35991
392.00	0.37343
393.00	0.38755
394.00	0.40332
395.00	0.41793
396.00	0.43228
397.00	0.44656
398.00	0.45982
399.00	0.47276
400.00	0.48445
401.00	0.49422
402.00	0.50304
403.00	0.51126
404.00	0.51924
405.00	0.52596
406.00	0.53301
407.00	0.53952
408.00	0.54816
409.00	0.55685
410.00	0.56658
411.00	0.57865
412.00	0.59289
413.00	0.60615
414.00	0.62153
415.00	0.63931
416.00	0.65746
417.00	0.67768
418.00	0.69698
419.00	0.71530
420.00	0.73318
421.00	0.75041
422.00	0.76655
423.00	0.77992
424.00	0.79123
425.00	0.80058
426.00	0.80829
427.00	0.81281
428.00	0.81536
429.00	0.81623
430.00	0.81607
431.00	0.81569
432.00	0.81514
433.00	0.81455
434.00	0.81645
435.00	0.81965
436.00	0.82520
437.00	0.83292
438.00	0.84178
439.00	0.85303
440.00	0.86640
441.00	0.88151
442.00	0.89814
443.00	0.91396
444.00	0.92972
445.00	0.94614
446.00	0.96179
447.00	0.97511
448.00	0.98685
449.00	0.99446
450.00	0.99864
451.00	1.0000
452.00	0.99706
453.00	0.99185
454.00	0.98299
455.00	0.96994
456.00	0.95396
457.00	0.93608
458.00	0.91657
459.00	0.89629
460.00	0.87700
461.00	0.85520
462.00	0.83574
463.00	0.81650
464.00	0.79982
465.00	0.78710
466.00	0.77650
467.00	0.76813
468.00	0.76204
469.00	0.75889
470.00	0.75867
471.00	0.76035
472.00	0.76280
473.00	0.76612
474.00	0.76927
475.00	0.77242
476.00	0.77552
477.00	0.77574
478.00	0.77525
479.00	0.77095
480.00	0.76340
481.00	0.75340
482.00	0.74128
483.00	0.72524
484.00	0.70605
485.00	0.67649
486.00	0.65958
487.00	0.63768
488.00	0.60626
489.00	0.57245
490.00	0.53941
491.00	0.50666
492.00	0.47332
493.00	0.44088
494.00	0.40820
495.00	0.37674
496.00	0.34536
497.00	0.31597
498.00	0.28743
499.00	0.26069
500.00	0.23644
501.00	0.21322
502.00	0.19285
503.00	0.17267
504.00	0.15522
505.00	0.13881
506.00	0.12463
507.00	0.11198
508.00	0.10010
509.00	0.089993
510.00	0.080237
511.00	0.072486
512.00	0.065567
513.00	0.059278
514.00	0.053310
515.00	0.048717
516.00	0.044022
517.00	0.039766
518.00	0.037351
519.00	0.034256
520.00	0.031532
521.00	0.028902
522.00	0.026375
523.00	0.024578
524.00	0.023231
525.00	0.021732
526.00	0.020058
527.00	0.018436
528.00	0.017233
529.00	0.016484
530.00	0.016046
531.00	0.014346
532.00	0.013936
533.00	0.013216
534.00	0.012252
535.00	0.012469
536.00	0.011609
537.00	0.010235
538.00	0.010354
539.00	0.0097271
540.00	0.0094940
541.00	0.0086624
542.00	0.0081514
543.00	0.0081487
544.00	0.0079780
545.00	0.0070421
546.00	0.0071616
547.00	0.0064409
548.00	0.0062882
549.00	0.0061349
550.00	0.0056582
551.00	0.0053549
552.00	0.0053473
553.00	0.0052332
554.00	0.0056066
555.00	0.0044581
556.00	0.0043233
557.00	0.0043081
558.00	0.0044195
559.00	0.0042537
560.00	0.0039167
561.00	0.0035123
562.00	0.0039580
563.00	0.0031830
564.00	0.0032270
565.00	0.0032243
566.00	0.0029003
567.00	0.0029215
568.00	0.0031753
569.00	0.0029601
570.00	0.0028123
571.00	0.0022785
572.00	0.0028280
573.00	0.0025351
574.00	0.0024079
575.00	0.0025997
576.00	0.0026334
577.00	0.0025997
578.00	0.0024470
579.00	0.0029443
580.00	0.0015915
581.00	0.0021176
582.00	0.0026101
583.00	0.0026519
584.00	0.0016148
585.00	0.0013610
586.00	0.0020323
587.00	0.0015241
588.00	0.0022964
589.00	0.0015529
590.00	0.0015632
591.00	0.0016018
592.00	0.00082455
593.00	0.0012806
594.00	0.0016127
595.00	0.0011898
596.00	0.00090227
597.00	0.00096423
598.00	0.00081694
599.00	0.00079085
600.00	0.00082183
