Wavelength (nm)	H06 ems
375.00	0.0010422
375.50	0.0010654
376.00	0.0010524
376.50	0.0010962
377.00	0.0011588
377.50	0.0011582
378.00	0.0011899
378.50	0.0012781
379.00	0.0012993
379.50	0.0014367
380.00	0.0015473
380.50	0.0016432
381.00	0.0017701
381.50	0.0017830
382.00	0.0018864
382.50	0.0019599
383.00	0.0021114
383.50	0.0022441
384.00	0.0023782
384.50	0.0025994
385.00	0.0028604
385.50	0.0030616
386.00	0.0033678
386.50	0.0036809
387.00	0.0041583
387.50	0.0044771
388.00	0.0049574
388.50	0.0055617
389.00	0.0061827
389.50	0.0066908
390.00	0.0074887
390.50	0.0081685
391.00	0.0090764
391.50	0.0098574
392.00	0.010829
392.50	0.012087
393.00	0.013322
393.50	0.014365
394.00	0.015865
394.50	0.017290
395.00	0.019101
395.50	0.020490
396.00	0.022418
396.50	0.024448
397.00	0.026801
397.50	0.028872
398.00	0.031758
398.50	0.034238
399.00	0.037642
399.50	0.040070
400.00	0.043634
400.50	0.047167
401.00	0.051893
401.50	0.055345
402.00	0.060440
402.50	0.065343
403.00	0.070922
403.50	0.075413
404.00	0.082212
404.50	0.087890
405.00	0.094904
405.50	0.10049
406.00	0.10877
406.50	0.11617
407.00	0.12567
407.50	0.13423
408.00	0.14504
408.50	0.15560
409.00	0.16721
409.50	0.17724
410.00	0.18932
410.50	0.20103
411.00	0.21586
411.50	0.22690
412.00	0.24196
412.50	0.25459
413.00	0.26933
413.50	0.28073
414.00	0.29555
414.50	0.31095
415.00	0.32605
415.50	0.33808
416.00	0.35412
416.50	0.37034
417.00	0.38672
417.50	0.40006
418.00	0.41710
418.50	0.43262
419.00	0.45010
419.50	0.46343
420.00	0.48079
420.50	0.49649
421.00	0.51463
421.50	0.52910
422.00	0.54739
422.50	0.56216
423.00	0.57990
423.50	0.59317
424.00	0.61091
424.50	0.62704
425.00	0.64414
425.50	0.65861
426.00	0.67516
426.50	0.68958
427.00	0.70633
427.50	0.71971
428.00	0.73702
428.50	0.75103
429.00	0.76840
429.50	0.78059
430.00	0.79609
430.50	0.80941
431.00	0.82504
431.50	0.83368
432.00	0.84681
432.50	0.85830
433.00	0.87222
433.50	0.88027
434.00	0.89162
434.50	0.89948
435.00	0.91087
435.50	0.91773
436.00	0.92675
436.50	0.93413
437.00	0.94091
437.50	0.94834
438.00	0.95278
438.50	0.95942
439.00	0.96438
439.50	0.96849
440.00	0.97204
440.50	0.97663
441.00	0.97981
441.50	0.98349
442.00	0.98667
442.50	0.98956
443.00	0.99240
443.50	0.99412
444.00	0.99589
444.50	0.99771
445.00	0.99931
445.50	0.99771
446.00	0.99920
446.50	1.0000
447.00	0.99753
447.50	0.99798
448.00	0.99548
448.50	0.99638
449.00	0.99254
449.50	0.99180
450.00	0.99112
450.50	0.98723
451.00	0.98472
451.50	0.98186
452.00	0.97664
452.50	0.97370
453.00	0.96862
453.50	0.96402
454.00	0.95986
454.50	0.95466
455.00	0.94784
455.50	0.94322
456.00	0.93683
456.50	0.93114
457.00	0.92333
457.50	0.91814
458.00	0.91141
458.50	0.90294
459.00	0.89697
459.50	0.88975
460.00	0.88053
460.50	0.87459
461.00	0.86693
461.50	0.86092
462.00	0.85438
462.50	0.84648
463.00	0.83924
463.50	0.83326
464.00	0.82428
464.50	0.81756
465.00	0.80991
465.50	0.80268
466.00	0.79450
466.50	0.78806
467.00	0.78012
467.50	0.77351
468.00	0.76470
468.50	0.75821
469.00	0.74863
469.50	0.74243
470.00	0.73318
470.50	0.72645
471.00	0.71804
471.50	0.71096
472.00	0.70213
472.50	0.69533
473.00	0.68636
473.50	0.68033
474.00	0.67080
474.50	0.66250
475.00	0.65420
475.50	0.64618
476.00	0.63821
476.50	0.62923
477.00	0.61985
477.50	0.61197
478.00	0.60285
478.50	0.59343
479.00	0.58444
479.50	0.57783
480.00	0.56724
480.50	0.55802
481.00	0.54863
481.50	0.54181
482.00	0.53315
482.50	0.52419
483.00	0.51672
483.50	0.50873
484.00	0.50023
484.50	0.49288
485.00	0.48457
485.50	0.47877
486.00	0.47099
486.50	0.46341
487.00	0.45752
487.50	0.45058
488.00	0.44391
488.50	0.43614
489.00	0.42964
489.50	0.42286
490.00	0.41646
490.50	0.41057
491.00	0.40378
491.50	0.39859
492.00	0.39113
492.50	0.38544
493.00	0.37870
493.50	0.37414
494.00	0.36654
494.50	0.36143
495.00	0.35586
495.50	0.35107
496.00	0.34395
496.50	0.33882
497.00	0.33336
497.50	0.32921
498.00	0.32291
498.50	0.31719
499.00	0.31168
499.50	0.30692
500.00	0.30075
500.50	0.29623
501.00	0.29015
501.50	0.28607
502.00	0.28029
502.50	0.27522
503.00	0.27004
503.50	0.26595
504.00	0.26009
504.50	0.25521
505.00	0.25030
505.50	0.24600
506.00	0.24091
506.50	0.23692
507.00	0.23145
507.50	0.22860
508.00	0.22353
508.50	0.21908
509.00	0.21512
509.50	0.21186
510.00	0.20793
510.50	0.20388
511.00	0.20035
511.50	0.19757
512.00	0.19373
512.50	0.18996
513.00	0.18678
513.50	0.18403
514.00	0.18024
514.50	0.17728
515.00	0.17312
515.50	0.17162
516.00	0.16773
516.50	0.16482
517.00	0.16159
517.50	0.15921
518.00	0.15642
518.50	0.15378
519.00	0.15026
519.50	0.14848
520.00	0.14547
520.50	0.14309
521.00	0.13995
521.50	0.13810
522.00	0.13516
522.50	0.13294
523.00	0.13064
523.50	0.12812
524.00	0.12587
524.50	0.12328
525.00	0.12050
525.50	0.11875
526.00	0.11621
526.50	0.11416
527.00	0.11187
527.50	0.11013
528.00	0.10771
528.50	0.10505
529.00	0.10337
529.50	0.10135
530.00	0.099542
530.50	0.097184
531.00	0.095379
531.50	0.093806
532.00	0.091977
532.50	0.090217
533.00	0.088411
533.50	0.086705
534.00	0.085101
534.50	0.083498
535.00	0.081753
535.50	0.080948
536.00	0.079198
536.50	0.077629
537.00	0.076003
537.50	0.074802
538.00	0.073696
538.50	0.072168
539.00	0.070753
539.50	0.069673
540.00	0.068279
540.50	0.067081
541.00	0.065482
541.50	0.064691
542.00	0.063494
542.50	0.062289
543.00	0.060891
543.50	0.060189
544.00	0.059166
544.50	0.057900
545.00	0.056588
545.50	0.055958
546.00	0.054784
546.50	0.053791
547.00	0.052931
547.50	0.051941
548.00	0.050761
548.50	0.050021
549.00	0.048881
549.50	0.048275
550.00	0.047379
550.50	0.046683
551.00	0.045557
551.50	0.044727
552.00	0.043798
552.50	0.043023
553.00	0.042169
553.50	0.041468
554.00	0.040552
554.50	0.039769
555.00	0.039124
555.50	0.038372
556.00	0.037840
556.50	0.036802
557.00	0.036288
557.50	0.035707
558.00	0.034860
558.50	0.034156
559.00	0.033636
559.50	0.033094
560.00	0.032446
560.50	0.032126
561.00	0.031257
561.50	0.030795
562.00	0.030342
562.50	0.029826
563.00	0.029325
563.50	0.028756
564.00	0.028407
564.50	0.027675
565.00	0.026914
565.50	0.026905
566.00	0.026428
566.50	0.025862
567.00	0.025392
567.50	0.024854
568.00	0.024498
568.50	0.024058
569.00	0.023689
569.50	0.023442
570.00	0.022874
570.50	0.022609
571.00	0.022079
571.50	0.021790
572.00	0.021416
572.50	0.020875
573.00	0.020775
573.50	0.020337
574.00	0.019910
574.50	0.019573
575.00	0.019364
575.50	0.018957
576.00	0.018735
576.50	0.018146
577.00	0.017876
577.50	0.017619
578.00	0.017242
578.50	0.016960
579.00	0.016657
579.50	0.016454
580.00	0.016045
580.50	0.015904
581.00	0.015577
581.50	0.015288
582.00	0.015014
582.50	0.014812
583.00	0.014476
583.50	0.014315
584.00	0.014189
584.50	0.013928
585.00	0.013709
585.50	0.013455
586.00	0.013187
586.50	0.012979
587.00	0.012601
587.50	0.012501
588.00	0.012466
588.50	0.012137
589.00	0.011953
589.50	0.011898
590.00	0.011573
590.50	0.011343
591.00	0.011258
591.50	0.011193
592.00	0.010920
592.50	0.010964
593.00	0.010640
593.50	0.010451
594.00	0.010220
594.50	0.010220
595.00	0.0099797
595.50	0.0098228
596.00	0.0096569
596.50	0.0095890
597.00	0.0093491
597.50	0.0092858
598.00	0.0091336
598.50	0.0090190
599.00	0.0087640
599.50	0.0086621
600.00	0.0084915
600.50	0.0084320
601.00	0.0083157
601.50	0.0080488
602.00	0.0080567
602.50	0.0078702
603.00	0.0078249
603.50	0.0076412
604.00	0.0076407
604.50	0.0074097
605.00	0.0073585
605.50	0.0071860
606.00	0.0072099
606.50	0.0070580
607.00	0.0068961
607.50	0.0068180
608.00	0.0067278
608.50	0.0066690
609.00	0.0066862
609.50	0.0064423
610.00	0.0064553
610.50	0.0064073
611.00	0.0061928
611.50	0.0062598
612.00	0.0059781
612.50	0.0060319
613.00	0.0059111
613.50	0.0058020
614.00	0.0057708
614.50	0.0055736
615.00	0.0056345
615.50	0.0054971
616.00	0.0056248
616.50	0.0053685
617.00	0.0054184
617.50	0.0052524
618.00	0.0051630
618.50	0.0051568
619.00	0.0050571
619.50	0.0051371
620.00	0.0049306
620.50	0.0049467
621.00	0.0049518
621.50	0.0048957
622.00	0.0048757
622.50	0.0048082
623.00	0.0046110
623.50	0.0045561
624.00	0.0046236
624.50	0.0044295
625.00	0.0045243
625.50	0.0044734
626.00	0.0043724
626.50	0.0044345
627.00	0.0042534
627.50	0.0042087
628.00	0.0042684
628.50	0.0042253
629.00	0.0041912
629.50	0.0041194
630.00	0.0041221
630.50	0.0041368
631.00	0.0039845
631.50	0.0039611
632.00	0.0039759
632.50	0.0039291
633.00	0.0039221
633.50	0.0037754
634.00	0.0037962
634.50	0.0038238
635.00	0.0037008
635.50	0.0037747
636.00	0.0037763
636.50	0.0036726
637.00	0.0035916
637.50	0.0035507
638.00	0.0033390
638.50	0.0036169
639.00	0.0034953
639.50	0.0034585
640.00	0.0034791
640.50	0.0034464
641.00	0.0033724
641.50	0.0035184
642.00	0.0032627
642.50	0.0033184
643.00	0.0032879
643.50	0.0032739
644.00	0.0031702
644.50	0.0032706
645.00	0.0031805
645.50	0.0032283
646.00	0.0032304
646.50	0.0031271
647.00	0.0030815
647.50	0.0031250
648.00	0.0031338
648.50	0.0030221
649.00	0.0030513
649.50	0.0030503
650.00	0.0030746
