Wavelength (nm)	I05 abs N
200.00	0.069819
201.00	0.064683
202.00	0.069234
203.00	0.073097
204.00	0.076130
205.00	0.080420
206.00	0.085808
207.00	0.089699
208.00	0.093357
209.00	0.096184
210.00	0.097499
211.00	0.097205
212.00	0.095203
213.00	0.093247
214.00	0.090744
215.00	0.088577
216.00	0.085678
217.00	0.082737
218.00	0.079298
219.00	0.075713
220.00	0.071395
221.00	0.067040
222.00	0.064529
223.00	0.063954
224.00	0.064817
225.00	0.066793
226.00	0.070102
227.00	0.074578
228.00	0.081069
229.00	0.088844
230.00	0.098413
231.00	0.11035
232.00	0.12489
233.00	0.14158
234.00	0.15874
235.00	0.17951
236.00	0.20517
237.00	0.23350
238.00	0.26516
239.00	0.30712
240.00	0.36339
241.00	0.41501
242.00	0.44240
243.00	0.46624
244.00	0.51393
245.00	0.57490
246.00	0.63476
247.00	0.71473
248.00	0.85180
249.00	1.0000
250.00	0.98941
251.00	0.75378
252.00	0.46887
253.00	0.26220
254.00	0.14665
255.00	0.087574
256.00	0.057129
257.00	0.040730
258.00	0.031244
259.00	0.025232
260.00	0.021316
261.00	0.018611
262.00	0.016834
263.00	0.015618
264.00	0.014303
265.00	0.013556
266.00	0.012790
267.00	0.012083
268.00	0.011515
269.00	0.010962
270.00	0.010484
271.00	0.010049
272.00	0.0095525
273.00	0.0091073
274.00	0.0087886
275.00	0.0085221
276.00	0.0083569
277.00	0.0081045
278.00	0.0078091
279.00	0.0076486
280.00	0.0075597
281.00	0.0073751
282.00	0.0072016
283.00	0.0071924
284.00	0.0070622
285.00	0.0069114
286.00	0.0069224
287.00	0.0069430
288.00	0.0067914
289.00	0.0068255
290.00	0.0067896
291.00	0.0068974
292.00	0.0068689
293.00	0.0068383
294.00	0.0069439
295.00	0.0069535
296.00	0.0069610
297.00	0.0069491
298.00	0.0071372
299.00	0.0072279
300.00	0.0073953
301.00	0.0076565
302.00	0.0077433
303.00	0.0079160
304.00	0.0083021
305.00	0.0085489
306.00	0.0089083
307.00	0.0093154
308.00	0.0097945
309.00	0.010156
310.00	0.010530
311.00	0.010810
312.00	0.011150
313.00	0.011828
314.00	0.012638
315.00	0.013328
316.00	0.013988
317.00	0.014304
318.00	0.014902
319.00	0.015647
320.00	0.016885
321.00	0.018303
322.00	0.019738
323.00	0.020759
324.00	0.021209
325.00	0.021453
326.00	0.022009
327.00	0.022690
328.00	0.024096
329.00	0.025860
330.00	0.027208
331.00	0.028004
332.00	0.028147
333.00	0.028519
334.00	0.029577
335.00	0.031601
336.00	0.034862
337.00	0.038599
338.00	0.041528
339.00	0.041974
340.00	0.040984
341.00	0.039740
342.00	0.038980
343.00	0.039090
344.00	0.040321
345.00	0.042341
346.00	0.044083
347.00	0.044973
348.00	0.044332
349.00	0.043151
350.00	0.042245
351.00	0.042812
352.00	0.045347
353.00	0.050282
354.00	0.056781
355.00	0.061622
356.00	0.062219
357.00	0.058481
358.00	0.053026
359.00	0.047224
360.00	0.042517
361.00	0.038733
362.00	0.035688
363.00	0.033726
364.00	0.032183
365.00	0.031017
366.00	0.029590
367.00	0.028109
368.00	0.026288
369.00	0.024321
370.00	0.022360
371.00	0.021181
372.00	0.019867
373.00	0.019218
374.00	0.018861
375.00	0.018693
376.00	0.018832
377.00	0.018837
378.00	0.018098
379.00	0.017903
380.00	0.017923
381.00	0.017522
382.00	0.017124
383.00	0.016835
384.00	0.015949
385.00	0.014915
386.00	0.013728
387.00	0.012428
388.00	0.010349
389.00	0.0089543
390.00	0.0071880
391.00	0.0058341
392.00	0.0048015
393.00	0.0041581
394.00	0.0034762
395.00	0.0027661
396.00	0.0025058
397.00	0.0026645
398.00	0.0023515
399.00	0.0019707
400.00	0.0017546
401.00	0.0015030
402.00	0.0016476
403.00	0.0017388
404.00	0.0017086
405.00	0.0015915
406.00	0.0013290
407.00	0.0014048
408.00	0.0015885
409.00	0.0015981
410.00	0.0015245
411.00	0.0016678
412.00	0.0014430
413.00	0.0014833
414.00	0.0015394
415.00	0.0016459
416.00	0.0013886
417.00	0.0014267
418.00	0.0013904
419.00	0.0012435
420.00	0.0012834
421.00	0.0015433
422.00	0.0014999
423.00	0.0012142
424.00	0.0012444
425.00	0.0011747
426.00	0.0010901
427.00	0.0014364
428.00	0.00097093
429.00	0.0015372
430.00	0.0012668
431.00	0.0011116
432.00	0.0011033
433.00	0.0012435
434.00	0.00096436
435.00	0.00096918
436.00	0.0012037
437.00	0.0013312
438.00	0.0013303
439.00	0.0013593
440.00	0.0013991
441.00	0.0014482
442.00	0.0011769
443.00	0.0013487
444.00	0.0014048
445.00	0.0011861
446.00	0.0010310
447.00	0.0011813
448.00	0.0010884
449.00	0.0013220
450.00	0.0013290
451.00	0.0012212
452.00	0.0012563
453.00	0.00099241
454.00	0.00097488
455.00	0.0010393
456.00	0.00096655
457.00	0.0013369
458.00	0.0010393
459.00	0.00076012
460.00	0.0010919
461.00	0.00078291
462.00	0.00099811
463.00	0.0010143
464.00	0.0010862
465.00	0.0011248
466.00	0.0010126
467.00	0.00094946
468.00	0.00087758
469.00	0.0013102
470.00	0.00078817
471.00	0.00084032
472.00	0.00083244
473.00	0.00049496
474.00	0.00089643
475.00	0.0011778
476.00	0.0012462
477.00	0.00074741
478.00	0.0010525
479.00	0.0013273
480.00	0.00092842
481.00	0.0010954
482.00	0.0012194
483.00	0.0012462
484.00	0.0010967
485.00	0.0016187
486.00	0.00068517
487.00	0.00094069
488.00	0.00048926
489.00	0.00081710
490.00	0.0011449
491.00	0.00090125
492.00	0.0012777
493.00	0.0011445
494.00	0.00049759
495.00	0.00052038
496.00	0.0010042
497.00	0.00070665
498.00	0.00073207
499.00	0.0011524
500.00	0.0011397
