Wavelength (nm)	J04 abs N
280.00	0.27319
281.00	0.26952
282.00	0.26582
283.00	0.26206
284.00	0.25865
285.00	0.25625
286.00	0.25484
287.00	0.25452
288.00	0.25547
289.00	0.25732
290.00	0.25961
291.00	0.26241
292.00	0.26512
293.00	0.26741
294.00	0.26968
295.00	0.27159
296.00	0.27393
297.00	0.27696
298.00	0.28071
299.00	0.28514
300.00	0.29093
301.00	0.29766
302.00	0.30570
303.00	0.31480
304.00	0.32456
305.00	0.33534
306.00	0.34665
307.00	0.35877
308.00	0.37158
309.00	0.38481
310.00	0.39876
311.00	0.41338
312.00	0.42853
313.00	0.44448
314.00	0.46064
315.00	0.47753
316.00	0.49484
317.00	0.51139
318.00	0.52772
319.00	0.54238
320.00	0.55591
321.00	0.56664
322.00	0.57575
323.00	0.58297
324.00	0.58888
325.00	0.59345
326.00	0.59781
327.00	0.60074
328.00	0.60477
329.00	0.60787
330.00	0.61025
331.00	0.61076
332.00	0.60883
333.00	0.60317
334.00	0.59284
335.00	0.57747
336.00	0.55649
337.00	0.53085
338.00	0.50162
339.00	0.47068
340.00	0.43874
341.00	0.40750
342.00	0.37793
343.00	0.35089
344.00	0.32596
345.00	0.30461
346.00	0.28568
347.00	0.26902
348.00	0.25534
349.00	0.24369
350.00	0.23387
351.00	0.22562
352.00	0.21866
353.00	0.21253
354.00	0.20780
355.00	0.20410
356.00	0.20104
357.00	0.19901
358.00	0.19719
359.00	0.19615
360.00	0.19560
361.00	0.19559
362.00	0.19584
363.00	0.19644
364.00	0.19807
365.00	0.19921
366.00	0.20174
367.00	0.20372
368.00	0.20644
369.00	0.20972
370.00	0.21371
371.00	0.21796
372.00	0.22169
373.00	0.22641
374.00	0.23156
375.00	0.23623
376.00	0.24124
377.00	0.24613
378.00	0.25056
379.00	0.25537
380.00	0.25985
381.00	0.26448
382.00	0.26875
383.00	0.27250
384.00	0.27627
385.00	0.28031
386.00	0.28328
387.00	0.28620
388.00	0.28920
389.00	0.29168
390.00	0.29479
391.00	0.29682
392.00	0.29896
393.00	0.30118
394.00	0.30368
395.00	0.30566
396.00	0.30818
397.00	0.30972
398.00	0.31208
399.00	0.31427
400.00	0.31601
401.00	0.31769
402.00	0.31963
403.00	0.32114
404.00	0.32386
405.00	0.32533
406.00	0.32667
407.00	0.32789
408.00	0.32985
409.00	0.33138
410.00	0.33251
411.00	0.33379
412.00	0.33521
413.00	0.33590
414.00	0.33722
415.00	0.33861
416.00	0.34047
417.00	0.34185
418.00	0.34449
419.00	0.34641
420.00	0.34865
421.00	0.35201
422.00	0.35561
423.00	0.35926
424.00	0.36359
425.00	0.36856
426.00	0.37504
427.00	0.38131
428.00	0.38782
429.00	0.39590
430.00	0.40407
431.00	0.41208
432.00	0.42095
433.00	0.43146
434.00	0.44320
435.00	0.45369
436.00	0.46521
437.00	0.47792
438.00	0.49038
439.00	0.50301
440.00	0.51662
441.00	0.53052
442.00	0.54335
443.00	0.55720
444.00	0.57097
445.00	0.58506
446.00	0.59918
447.00	0.61252
448.00	0.62732
449.00	0.64240
450.00	0.65700
451.00	0.67201
452.00	0.68774
453.00	0.70355
454.00	0.71951
455.00	0.73689
456.00	0.75485
457.00	0.77067
458.00	0.78660
459.00	0.80309
460.00	0.81902
461.00	0.83577
462.00	0.85354
463.00	0.86956
464.00	0.88580
465.00	0.90050
466.00	0.91322
467.00	0.92573
468.00	0.94017
469.00	0.95379
470.00	0.96319
471.00	0.97120
472.00	0.98034
473.00	0.98689
474.00	0.98848
475.00	0.99241
476.00	0.99468
477.00	0.99540
478.00	1.0000
479.00	0.99532
480.00	0.99472
481.00	0.99415
482.00	0.99416
483.00	0.99138
484.00	0.98997
485.00	0.99067
486.00	0.99016
487.00	0.98853
488.00	0.98670
489.00	0.98373
490.00	0.98451
491.00	0.98086
492.00	0.97950
493.00	0.97719
494.00	0.97699
495.00	0.97037
496.00	0.96780
497.00	0.96256
498.00	0.95438
499.00	0.94736
500.00	0.93384
501.00	0.92396
502.00	0.90961
503.00	0.89156
504.00	0.87474
505.00	0.85218
506.00	0.82653
507.00	0.79776
508.00	0.76739
509.00	0.73469
510.00	0.69839
511.00	0.65876
512.00	0.62049
513.00	0.58304
514.00	0.54106
515.00	0.50134
516.00	0.46165
517.00	0.42477
518.00	0.38802
519.00	0.35277
520.00	0.32184
521.00	0.29191
522.00	0.26404
523.00	0.23758
524.00	0.21455
525.00	0.19287
526.00	0.17310
527.00	0.15513
528.00	0.13870
529.00	0.12424
530.00	0.11131
531.00	0.099883
532.00	0.089995
533.00	0.079986
534.00	0.071541
535.00	0.064190
536.00	0.057656
537.00	0.051201
538.00	0.046158
539.00	0.041549
540.00	0.037521
541.00	0.033708
542.00	0.030711
543.00	0.027589
544.00	0.024992
545.00	0.022750
546.00	0.020874
547.00	0.018654
548.00	0.016942
549.00	0.015863
550.00	0.014178
551.00	0.013295
552.00	0.012344
553.00	0.011342
554.00	0.010631
555.00	0.0095854
556.00	0.0087823
557.00	0.0082084
558.00	0.0082525
559.00	0.0079650
560.00	0.0073945
561.00	0.0070872
562.00	0.0064550
563.00	0.0059801
564.00	0.0059547
565.00	0.0058630
566.00	0.0055506
567.00	0.0049297
568.00	0.0053491
569.00	0.0051651
570.00	0.0048957
571.00	0.0046863
572.00	0.0045148
573.00	0.0039913
574.00	0.0042250
575.00	0.0040015
576.00	0.0040932
577.00	0.0041492
578.00	0.0039369
579.00	0.0038792
580.00	0.0037304
581.00	0.0038424
582.00	0.0037587
583.00	0.0037519
584.00	0.0039307
585.00	0.0037836
586.00	0.0036523
587.00	0.0037123
588.00	0.0037898
589.00	0.0038096
590.00	0.0038730
591.00	0.0039941
592.00	0.0038877
593.00	0.0036404
594.00	0.0036789
595.00	0.0038170
596.00	0.0036709
597.00	0.0036364
598.00	0.0036704
599.00	0.0037824
600.00	0.0034745
601.00	0.0035147
602.00	0.0037049
603.00	0.0035725
604.00	0.0036183
605.00	0.0035583
606.00	0.0036885
607.00	0.0036924
608.00	0.0038107
609.00	0.0037926
610.00	0.0037145
611.00	0.0038356
612.00	0.0037677
613.00	0.0036647
614.00	0.0036936
615.00	0.0038741
616.00	0.0037564
617.00	0.0038464
618.00	0.0038424
619.00	0.0038441
620.00	0.0037530
621.00	0.0038424
622.00	0.0040615
623.00	0.0037711
624.00	0.0036777
625.00	0.0036664
626.00	0.0039143
627.00	0.0038707
628.00	0.0040105
629.00	0.0040320
630.00	0.0041543
631.00	0.0041254
632.00	0.0041985
633.00	0.0039753
634.00	0.0040409
635.00	0.0042954
636.00	0.0040411
637.00	0.0042775
638.00	0.0042317
639.00	0.0041934
640.00	0.0041806
641.00	0.0042680
642.00	0.0039398
643.00	0.0039669
644.00	0.0040309
645.00	0.0035300
646.00	0.0039907
647.00	0.0041549
648.00	0.0033512
649.00	0.0035634
650.00	0.0041000
