Wavelength (nm)	J14 abs N
280.00	0.25065
281.00	0.24640
282.00	0.24339
283.00	0.24124
284.00	0.24007
285.00	0.23980
286.00	0.24041
287.00	0.24144
288.00	0.24282
289.00	0.24483
290.00	0.24740
291.00	0.25025
292.00	0.25330
293.00	0.25689
294.00	0.26086
295.00	0.26522
296.00	0.26924
297.00	0.27379
298.00	0.27835
299.00	0.28296
300.00	0.28770
301.00	0.29242
302.00	0.29705
303.00	0.30208
304.00	0.30695
305.00	0.31147
306.00	0.31585
307.00	0.32074
308.00	0.32508
309.00	0.32923
310.00	0.33280
311.00	0.33556
312.00	0.33852
313.00	0.34161
314.00	0.34448
315.00	0.34779
316.00	0.35169
317.00	0.35587
318.00	0.36060
319.00	0.36614
320.00	0.37244
321.00	0.37980
322.00	0.38748
323.00	0.39624
324.00	0.40518
325.00	0.41424
326.00	0.42380
327.00	0.43367
328.00	0.44372
329.00	0.45391
330.00	0.46443
331.00	0.47435
332.00	0.48436
333.00	0.49428
334.00	0.50450
335.00	0.51424
336.00	0.52324
337.00	0.53229
338.00	0.54086
339.00	0.54853
340.00	0.55641
341.00	0.56381
342.00	0.57048
343.00	0.57649
344.00	0.58092
345.00	0.58537
346.00	0.58860
347.00	0.59152
348.00	0.59404
349.00	0.59569
350.00	0.59601
351.00	0.59583
352.00	0.59523
353.00	0.59408
354.00	0.59208
355.00	0.59025
356.00	0.58773
357.00	0.58387
358.00	0.57914
359.00	0.57423
360.00	0.56794
361.00	0.56081
362.00	0.55190
363.00	0.54196
364.00	0.53106
365.00	0.51964
366.00	0.50746
367.00	0.49530
368.00	0.48377
369.00	0.47238
370.00	0.46122
371.00	0.45077
372.00	0.44156
373.00	0.43276
374.00	0.42548
375.00	0.41861
376.00	0.41170
377.00	0.40625
378.00	0.40059
379.00	0.39623
380.00	0.39223
381.00	0.38876
382.00	0.38545
383.00	0.38181
384.00	0.37842
385.00	0.37627
386.00	0.37412
387.00	0.37195
388.00	0.37001
389.00	0.36819
390.00	0.36671
391.00	0.36500
392.00	0.36400
393.00	0.36325
394.00	0.36219
395.00	0.36184
396.00	0.36083
397.00	0.35990
398.00	0.35911
399.00	0.35893
400.00	0.35901
401.00	0.35898
402.00	0.35833
403.00	0.35772
404.00	0.35764
405.00	0.35760
406.00	0.35730
407.00	0.35809
408.00	0.35806
409.00	0.35892
410.00	0.35915
411.00	0.35933
412.00	0.36075
413.00	0.36167
414.00	0.36260
415.00	0.36349
416.00	0.36448
417.00	0.36532
418.00	0.36655
419.00	0.36768
420.00	0.36909
421.00	0.36995
422.00	0.37071
423.00	0.37193
424.00	0.37274
425.00	0.37453
426.00	0.37639
427.00	0.37844
428.00	0.38018
429.00	0.38134
430.00	0.38384
431.00	0.38617
432.00	0.38862
433.00	0.39187
434.00	0.39502
435.00	0.39791
436.00	0.40083
437.00	0.40379
438.00	0.40715
439.00	0.41028
440.00	0.41329
441.00	0.41708
442.00	0.41910
443.00	0.42198
444.00	0.42538
445.00	0.42852
446.00	0.43194
447.00	0.43502
448.00	0.43802
449.00	0.44102
450.00	0.44498
451.00	0.44944
452.00	0.45341
453.00	0.45756
454.00	0.46199
455.00	0.46692
456.00	0.47259
457.00	0.47820
458.00	0.48526
459.00	0.49176
460.00	0.49879
461.00	0.50537
462.00	0.51296
463.00	0.52253
464.00	0.53076
465.00	0.53994
466.00	0.54834
467.00	0.55756
468.00	0.56739
469.00	0.57577
470.00	0.58673
471.00	0.59692
472.00	0.61027
473.00	0.62105
474.00	0.63027
475.00	0.63980
476.00	0.65083
477.00	0.66215
478.00	0.67526
479.00	0.68703
480.00	0.69748
481.00	0.70736
482.00	0.71769
483.00	0.73051
484.00	0.74127
485.00	0.75690
486.00	0.76483
487.00	0.77147
488.00	0.78133
489.00	0.79485
490.00	0.80841
491.00	0.82202
492.00	0.83261
493.00	0.84251
494.00	0.85225
495.00	0.86094
496.00	0.87322
497.00	0.87912
498.00	0.89611
499.00	0.90637
500.00	0.91004
501.00	0.91908
502.00	0.92978
503.00	0.94066
504.00	0.95013
505.00	0.95700
506.00	0.95976
507.00	0.96599
508.00	0.96977
509.00	0.97806
510.00	0.98656
511.00	0.99495
512.00	0.99074
513.00	0.99191
514.00	0.99621
515.00	0.99021
516.00	0.99256
517.00	0.99824
518.00	1.00000
519.00	0.99664
520.00	0.99027
521.00	0.98764
522.00	0.98913
523.00	0.98368
524.00	0.98057
525.00	0.97718
526.00	0.97108
527.00	0.96138
528.00	0.96337
529.00	0.96040
530.00	0.95453
531.00	0.95083
532.00	0.94233
533.00	0.93268
534.00	0.92959
535.00	0.92372
536.00	0.91766
537.00	0.91005
538.00	0.90064
539.00	0.89083
540.00	0.88367
541.00	0.87287
542.00	0.86203
543.00	0.85432
544.00	0.84101
545.00	0.82647
546.00	0.81656
547.00	0.80304
548.00	0.78752
549.00	0.77273
550.00	0.75674
551.00	0.73594
552.00	0.71814
553.00	0.70083
554.00	0.68072
555.00	0.66167
556.00	0.63982
557.00	0.61778
558.00	0.59508
559.00	0.57221
560.00	0.54889
561.00	0.52672
562.00	0.50355
563.00	0.47944
564.00	0.45498
565.00	0.43156
566.00	0.40832
567.00	0.38457
568.00	0.36234
569.00	0.33931
570.00	0.31827
571.00	0.29717
572.00	0.27796
573.00	0.25839
574.00	0.23937
575.00	0.22237
576.00	0.20541
577.00	0.18862
578.00	0.17431
579.00	0.16068
580.00	0.14659
581.00	0.13377
582.00	0.12339
583.00	0.11392
584.00	0.10257
585.00	0.093553
586.00	0.086352
587.00	0.078075
588.00	0.071227
589.00	0.065332
590.00	0.059462
591.00	0.054314
592.00	0.049360
593.00	0.044904
594.00	0.041340
595.00	0.037745
596.00	0.034910
597.00	0.031975
598.00	0.029250
599.00	0.026789
600.00	0.024823
601.00	0.022846
602.00	0.021070
603.00	0.019562
604.00	0.018216
605.00	0.016908
606.00	0.015745
607.00	0.014623
608.00	0.013888
609.00	0.013067
610.00	0.012096
611.00	0.011388
612.00	0.010717
613.00	0.010071
614.00	0.0094688
615.00	0.0090842
616.00	0.0086803
617.00	0.0082803
618.00	0.0078808
619.00	0.0074863
620.00	0.0070671
621.00	0.0067204
622.00	0.0066202
623.00	0.0062705
624.00	0.0061140
625.00	0.0058509
626.00	0.0056492
627.00	0.0055604
628.00	0.0052513
629.00	0.0050969
630.00	0.0049319
631.00	0.0048726
632.00	0.0050598
633.00	0.0052265
634.00	0.0052798
635.00	0.0052875
636.00	0.0052227
637.00	0.0049199
638.00	0.0045570
639.00	0.0042171
640.00	0.0037962
641.00	0.0037847
642.00	0.0036402
643.00	0.0036342
644.00	0.0032401
645.00	0.0033173
646.00	0.0033297
647.00	0.0030934
648.00	0.0032636
649.00	0.0027612
650.00	0.0029199
651.00	0.0028747
652.00	0.0026337
653.00	0.0023293
654.00	0.0022030
655.00	0.0025360
656.00	0.0023137
657.00	0.0020108
658.00	0.0021523
659.00	0.0023135
660.00	0.0022111
661.00	0.0020845
662.00	0.0021028
663.00	0.0018636
664.00	0.0020205
665.00	0.0018555
666.00	0.0021681
667.00	0.0017267
668.00	0.0018981
669.00	0.0019437
670.00	0.0017885
671.00	0.0018026
672.00	0.0018175
673.00	0.0016333
674.00	0.0016022
675.00	0.0015680
676.00	0.0017591
677.00	0.0015442
678.00	0.0015732
679.00	0.0016457
680.00	0.0015685
681.00	0.0014056
682.00	0.0013680
683.00	0.0013923
684.00	0.0013361
685.00	0.0013587
686.00	0.0014930
687.00	0.0012746
688.00	0.0012000
689.00	0.0013271
690.00	0.0011970
691.00	0.0012290
692.00	0.0011361
693.00	0.0013062
694.00	0.0013864
695.00	0.0014056
696.00	0.0013181
697.00	0.0012725
698.00	0.0010418
699.00	0.0012073
700.00	0.0012286
