Wavelength (nm)	K10 ems
510.00	0.0037483
510.50	0.0037977
511.00	0.0033989
511.50	0.0036473
512.00	0.0040973
512.50	0.0037262
513.00	0.0040980
513.50	0.0041084
514.00	0.0044425
514.50	0.0051840
515.00	0.0050547
515.50	0.0057419
516.00	0.0059831
516.50	0.0057742
517.00	0.0067981
517.50	0.0074254
518.00	0.0075081
518.50	0.0079852
519.00	0.0084543
519.50	0.0091970
520.00	0.0099646
520.50	0.0095953
521.00	0.0097179
521.50	0.012225
522.00	0.011742
522.50	0.013547
523.00	0.014288
523.50	0.014980
524.00	0.016831
524.50	0.018660
525.00	0.019994
525.50	0.021813
526.00	0.021953
526.50	0.025318
527.00	0.027842
527.50	0.030283
528.00	0.032277
528.50	0.034810
529.00	0.038293
529.50	0.043177
530.00	0.045684
530.50	0.051402
531.00	0.055861
531.50	0.061296
532.00	0.064913
532.50	0.072644
533.00	0.079090
533.50	0.087779
534.00	0.094056
534.50	0.10247
535.00	0.11222
535.50	0.12483
536.00	0.13324
536.50	0.14672
537.00	0.15928
537.50	0.17731
538.00	0.18891
538.50	0.20539
539.00	0.22100
539.50	0.24166
540.00	0.25840
540.50	0.27658
541.00	0.30257
541.50	0.32595
542.00	0.34245
542.50	0.37475
543.00	0.39144
543.50	0.42449
544.00	0.44361
544.50	0.47753
545.00	0.49969
545.50	0.53755
546.00	0.56090
546.50	0.59863
547.00	0.62165
547.50	0.66065
548.00	0.67475
548.50	0.71043
549.00	0.73488
549.50	0.77137
550.00	0.79458
550.50	0.82681
551.00	0.84409
551.50	0.86450
552.00	0.89231
552.50	0.91240
553.00	0.92499
553.50	0.94323
554.00	0.95547
554.50	0.96244
555.00	0.98039
555.50	0.99093
556.00	0.99467
556.50	0.99427
557.00	1.0000
557.50	0.99760
558.00	0.99877
558.50	0.99845
559.00	0.99229
559.50	0.99175
560.00	0.98026
560.50	0.97475
561.00	0.97175
561.50	0.94900
562.00	0.95315
562.50	0.93473
563.00	0.92411
563.50	0.91045
564.00	0.90345
564.50	0.88860
565.00	0.88295
565.50	0.85883
566.00	0.84883
566.50	0.82687
567.00	0.81602
567.50	0.80191
568.00	0.79294
568.50	0.76710
569.00	0.76539
569.50	0.75145
570.00	0.73789
570.50	0.72515
571.00	0.71226
571.50	0.69349
572.00	0.68345
572.50	0.67616
573.00	0.66070
573.50	0.64993
574.00	0.64513
574.50	0.63453
575.00	0.61548
575.50	0.60777
576.00	0.58918
576.50	0.58764
577.00	0.58114
577.50	0.56536
578.00	0.56719
578.50	0.55557
579.00	0.54794
579.50	0.53750
580.00	0.53647
580.50	0.53192
581.00	0.52886
581.50	0.52341
582.00	0.51945
582.50	0.51681
583.00	0.51059
583.50	0.51249
584.00	0.50871
584.50	0.50180
585.00	0.49650
585.50	0.50217
586.00	0.49617
586.50	0.49889
587.00	0.49946
587.50	0.49718
588.00	0.49767
588.50	0.49685
589.00	0.49589
589.50	0.49259
590.00	0.49031
590.50	0.49123
591.00	0.49140
591.50	0.49008
592.00	0.49076
592.50	0.49271
593.00	0.49517
593.50	0.49452
594.00	0.49576
594.50	0.49295
595.00	0.49186
595.50	0.49746
596.00	0.49124
596.50	0.49892
597.00	0.48956
597.50	0.49777
598.00	0.48815
598.50	0.49189
599.00	0.48443
599.50	0.48373
600.00	0.48809
600.50	0.48099
601.00	0.48016
601.50	0.47696
602.00	0.47598
602.50	0.47004
603.00	0.47311
603.50	0.45674
604.00	0.45948
604.50	0.46495
605.00	0.44716
605.50	0.44727
606.00	0.44108
606.50	0.43532
607.00	0.43358
607.50	0.42804
608.00	0.42467
608.50	0.41391
609.00	0.41918
609.50	0.40379
610.00	0.40136
610.50	0.39773
611.00	0.38865
611.50	0.38265
612.00	0.38340
612.50	0.37416
613.00	0.37306
613.50	0.35977
614.00	0.36046
614.50	0.34759
615.00	0.34396
615.50	0.33990
616.00	0.33498
616.50	0.32935
617.00	0.32305
617.50	0.31607
618.00	0.30863
618.50	0.30694
619.00	0.30675
619.50	0.29696
620.00	0.29515
620.50	0.28987
621.00	0.28360
621.50	0.27877
622.00	0.27815
622.50	0.26909
623.00	0.26269
623.50	0.25767
624.00	0.26055
624.50	0.25021
625.00	0.24910
625.50	0.24267
626.00	0.23616
626.50	0.22800
627.00	0.23041
627.50	0.22519
628.00	0.22019
628.50	0.21454
629.00	0.21417
629.50	0.21335
630.00	0.20462
630.50	0.20628
631.00	0.20550
631.50	0.19853
632.00	0.19680
632.50	0.19102
633.00	0.18722
633.50	0.18797
634.00	0.18811
634.50	0.18437
635.00	0.18264
635.50	0.17913
636.00	0.17774
636.50	0.17333
637.00	0.16713
637.50	0.17045
638.00	0.17075
638.50	0.16976
639.00	0.16408
639.50	0.15810
640.00	0.16256
640.50	0.15865
641.00	0.15763
641.50	0.15429
642.00	0.15428
642.50	0.15156
643.00	0.14998
643.50	0.14885
644.00	0.15039
644.50	0.14955
645.00	0.14383
645.50	0.14444
646.00	0.14224
646.50	0.14230
647.00	0.14208
647.50	0.13925
648.00	0.13746
648.50	0.13711
649.00	0.13483
649.50	0.13329
650.00	0.13259
650.50	0.12924
651.00	0.13096
651.50	0.12717
652.00	0.12574
652.50	0.12128
653.00	0.12481
653.50	0.12042
654.00	0.12423
654.50	0.12269
655.00	0.12022
655.50	0.12092
656.00	0.11917
656.50	0.11937
657.00	0.11451
657.50	0.11833
658.00	0.11361
658.50	0.11287
659.00	0.11614
659.50	0.11039
660.00	0.10546
660.50	0.10639
661.00	0.10828
661.50	0.10422
662.00	0.10638
662.50	0.098967
663.00	0.10143
663.50	0.097419
664.00	0.097034
664.50	0.094301
665.00	0.099193
665.50	0.092780
666.00	0.095289
666.50	0.095395
667.00	0.089486
667.50	0.088560
668.00	0.086807
668.50	0.088103
669.00	0.087248
669.50	0.080276
670.00	0.084930
670.50	0.082603
671.00	0.085423
671.50	0.079571
672.00	0.079041
672.50	0.080322
673.00	0.078453
673.50	0.072986
674.00	0.072185
674.50	0.075539
675.00	0.071421
675.50	0.072686
676.00	0.069276
676.50	0.070128
677.00	0.069554
677.50	0.064448
678.00	0.068331
678.50	0.066019
679.00	0.065474
679.50	0.064540
680.00	0.062830
680.50	0.060881
681.00	0.059545
681.50	0.059221
682.00	0.056766
682.50	0.055192
683.00	0.055349
683.50	0.057357
684.00	0.057920
684.50	0.053620
685.00	0.050658
685.50	0.053788
686.00	0.053543
686.50	0.052970
687.00	0.052524
687.50	0.051558
688.00	0.047683
688.50	0.048590
689.00	0.048750
689.50	0.046817
690.00	0.046817
690.50	0.045486
691.00	0.047622
691.50	0.045638
692.00	0.043232
692.50	0.043112
693.00	0.043385
693.50	0.038908
694.00	0.038950
694.50	0.037825
695.00	0.038007
695.50	0.041340
696.00	0.041409
696.50	0.039449
697.00	0.039342
697.50	0.036388
698.00	0.035299
698.50	0.037287
699.00	0.036722
699.50	0.034525
700.00	0.034798
700.50	0.034061
701.00	0.033310
701.50	0.034822
702.00	0.034898
702.50	0.034014
703.00	0.032435
703.50	0.031687
704.00	0.031443
704.50	0.032292
705.00	0.031518
705.50	0.032027
706.00	0.027108
706.50	0.029430
707.00	0.027114
707.50	0.028981
708.00	0.027839
708.50	0.022651
709.00	0.029741
709.50	0.025852
710.00	0.028570
710.50	0.024504
711.00	0.026056
711.50	0.024960
712.00	0.026213
712.50	0.029989
713.00	0.027918
713.50	0.027122
714.00	0.026117
714.50	0.025426
715.00	0.025655
715.50	0.024614
716.00	0.022547
716.50	0.024042
717.00	0.022011
717.50	0.025779
718.00	0.022213
718.50	0.022903
719.00	0.024856
719.50	0.023741
720.00	0.023530
720.50	0.020705
721.00	0.017195
721.50	0.020773
722.00	0.022002
722.50	0.020323
723.00	0.018399
723.50	0.021335
724.00	0.020581
724.50	0.019065
725.00	0.017603
725.50	0.021836
726.00	0.018007
726.50	0.018982
727.00	0.016707
727.50	0.018856
728.00	0.020009
728.50	0.017291
729.00	0.015014
729.50	0.014071
730.00	0.014893
730.50	0.016137
731.00	0.022073
731.50	0.016527
732.00	0.016391
732.50	0.017004
733.00	0.020069
733.50	0.021647
734.00	0.020424
734.50	0.017378
735.00	0.015588
735.50	0.016296
736.00	0.013331
736.50	0.017736
737.00	0.010835
737.50	0.012598
738.00	0.010340
738.50	0.011216
739.00	0.015739
739.50	0.012998
740.00	0.011696
740.50	0.0079715
741.00	0.014075
741.50	0.0086312
742.00	0.012360
742.50	0.013004
743.00	0.0090738
743.50	0.014886
744.00	0.014878
744.50	0.014868
745.00	0.010656
745.50	0.0099332
746.00	0.0083113
746.50	0.0070675
747.00	0.012807
747.50	0.010166
748.00	0.015786
748.50	0.0088584
749.00	0.0070675
749.50	0.016467
750.00	0.0094224
750.50	0.020393
751.00	0.0070157
751.50	0.012730
752.00	0.011424
752.50	0.011166
753.00	0.010798
753.50	0.0098889
754.00	0.0099408
754.50	0.010969
755.00	0.010590
755.50	0.0073574
756.00	0.0086093
756.50	0.0061063
757.00	0.0075869
757.50	0.0047150
758.00	0.0099185
758.50	0.0068015
759.00	0.0089982
759.50	0.0069864
760.00	0.0055282
760.50	0.0019758
761.00	0.0077945
761.50	0.0067848
762.00	0.0037683
762.50	0.0031980
763.00	0.0036892
763.50	0.0050200
764.00	0.0045665
764.50	0.012059
765.00	0.0053399
765.50	0.0021792
766.00	0.0074788
766.50	0.0065345
767.00	0.0053323
767.50	0.0087188
768.00	0.0063893
768.50	0.0037834
769.00	0.0040559
769.50	0.0015114
770.00	0.0051195
770.50	0.0048912
771.00	0.0082746
771.50	0.0021936
772.00	0.0014226
772.50	0.0025063
773.00	0.0074014
773.50	0.0070433
774.00	0.0018803
774.50	0.0017985
775.00	0.0051349
775.50	0.00055555
776.00	0.0045090
776.50	0.00042453
777.00	0.00044179
777.50	0.0069336
778.00	0.0054396
778.50	0.0036499
779.00	0.0015603
779.50	0.010046
780.00	0.0072571
780.50	0.0052939
781.00	0.0043153
781.50	0.0034714
782.00	0.0040665
782.50	0.0037947
783.00	0.0028144
783.50	0.0086723
784.00	0.00045699
784.50	0.0047537
785.00	0.00031240
785.50	0.0056920
786.00	0.00099062
786.50	0.00058758
787.00	0.00028746
787.50	0.0035095
788.00	0.0035241
788.50	0.015334
789.00	0.0052454
789.50	0.0050816
790.00	0.0076149
790.50	0.00063881
791.00	0.0065898
791.50	0.0032949
792.00	0.0045968
792.50	0.0028722
793.00	0.0081455
793.50	0.0030583
794.00	0.0018137
794.50	0.0056708
795.00	0.00050307
795.50	0.0018157
796.00	0.0077221
796.50	0.0011700
797.00	0.0058133
797.50	0.010503
798.00	0.0020242
798.50	0.0026732
799.00	0.00069274
799.50	0.0027337
800.00	0.00052896
