Wavelength (nm)	N02 abs N	N02 abs e
200.00	0.38884	29163
201.00	0.43229	32422
202.00	0.44195	33147
203.00	0.43578	32684
204.00	0.42587	31940
205.00	0.41407	31056
206.00	0.39931	29948
207.00	0.38332	28749
208.00	0.36783	27587
209.00	0.35208	26406
210.00	0.33730	25298
211.00	0.32360	24270
212.00	0.31199	23400
213.00	0.30188	22641
214.00	0.29372	22029
215.00	0.28671	21503
216.00	0.28109	21082
217.00	0.27679	20760
218.00	0.27377	20533
219.00	0.27159	20369
220.00	0.27013	20260
221.00	0.26935	20202
222.00	0.26935	20201
223.00	0.26994	20246
224.00	0.27116	20337
225.00	0.27335	20501
226.00	0.27634	20726
227.00	0.28055	21041
228.00	0.28632	21474
229.00	0.29354	22015
230.00	0.30264	22698
231.00	0.31415	23561
232.00	0.32718	24538
233.00	0.34252	25689
234.00	0.35964	26973
235.00	0.37877	28407
236.00	0.39916	29937
237.00	0.42076	31557
238.00	0.44303	33227
239.00	0.46429	34822
240.00	0.48530	36397
241.00	0.50430	37822
242.00	0.51854	38891
243.00	0.52550	39412
244.00	0.52112	39084
245.00	0.50346	37759
246.00	0.47316	35487
247.00	0.43384	32538
248.00	0.39048	29286
249.00	0.34893	26170
250.00	0.31097	23323
251.00	0.27863	20897
252.00	0.25270	18952
253.00	0.23140	17355
254.00	0.21487	16116
255.00	0.20115	15086
256.00	0.19002	14251
257.00	0.18107	13580
258.00	0.17391	13043
259.00	0.16861	12646
260.00	0.16465	12349
261.00	0.16201	12151
262.00	0.16056	12042
263.00	0.15937	11953
264.00	0.15748	11811
265.00	0.15541	11656
266.00	0.15217	11413
267.00	0.14796	11097
268.00	0.14284	10713
269.00	0.13754	10315
270.00	0.13233	9924.5
271.00	0.12739	9554.5
272.00	0.12324	9242.9
273.00	0.11950	8962.4
274.00	0.11671	8753.6
275.00	0.11436	8577.2
276.00	0.11269	8451.8
277.00	0.11189	8391.4
278.00	0.11152	8363.8
279.00	0.11136	8352.1
280.00	0.11184	8387.9
281.00	0.11235	8426.3
282.00	0.11307	8480.2
283.00	0.11398	8548.7
284.00	0.11466	8599.6
285.00	0.11540	8654.7
286.00	0.11597	8697.8
287.00	0.11687	8765.2
288.00	0.11744	8807.8
289.00	0.11737	8802.9
290.00	0.11684	8762.9
291.00	0.11555	8666.6
292.00	0.11321	8490.7
293.00	0.10952	8214.2
294.00	0.10519	7889.5
295.00	0.099886	7491.5
296.00	0.093929	7044.7
297.00	0.087734	6580.0
298.00	0.081443	6108.2
299.00	0.075612	5670.9
300.00	0.069926	5244.4
301.00	0.064701	4852.5
302.00	0.059904	4492.8
303.00	0.055674	4175.5
304.00	0.052016	3901.2
305.00	0.048881	3666.0
306.00	0.046473	3485.5
307.00	0.044324	3324.3
308.00	0.042693	3201.9
309.00	0.041579	3118.4
310.00	0.040777	3058.2
311.00	0.040610	3045.8
312.00	0.040720	3054.0
313.00	0.041244	3093.3
314.00	0.041998	3149.9
315.00	0.043010	3225.8
316.00	0.044186	3313.9
317.00	0.045527	3414.5
318.00	0.046951	3521.3
319.00	0.048395	3629.6
320.00	0.049897	3742.2
321.00	0.051292	3846.9
322.00	0.052742	3955.6
323.00	0.054348	4076.1
324.00	0.056107	4208.0
325.00	0.058327	4374.5
326.00	0.060761	4557.1
327.00	0.063286	4746.5
328.00	0.066121	4959.1
329.00	0.068978	5173.4
330.00	0.071992	5399.4
331.00	0.074558	5591.8
332.00	0.076705	5752.9
333.00	0.078484	5886.3
334.00	0.079483	5961.2
335.00	0.079782	5983.7
336.00	0.079119	5933.9
337.00	0.077774	5833.0
338.00	0.075924	5694.3
339.00	0.073490	5511.7
340.00	0.070822	5311.7
341.00	0.067750	5081.2
342.00	0.064241	4818.1
343.00	0.060812	4560.9
344.00	0.057218	4291.3
345.00	0.053577	4018.3
346.00	0.049675	3725.6
347.00	0.046061	3454.6
348.00	0.042601	3195.1
349.00	0.039045	2928.4
350.00	0.035928	2694.6
351.00	0.032883	2466.2
352.00	0.029954	2246.5
353.00	0.027572	2067.9
354.00	0.025139	1885.5
355.00	0.023191	1739.3
356.00	0.021502	1612.7
357.00	0.019838	1487.8
358.00	0.018362	1377.1
359.00	0.017301	1297.5
360.00	0.016438	1232.8
361.00	0.015390	1154.2
362.00	0.014851	1113.9
363.00	0.014588	1094.1
364.00	0.014499	1087.4
365.00	0.014112	1058.4
366.00	0.014092	1056.9
367.00	0.013952	1046.4
368.00	0.013883	1041.2
369.00	0.013807	1035.5
370.00	0.014120	1059.0
371.00	0.014272	1070.4
372.00	0.014163	1062.2
373.00	0.014091	1056.9
374.00	0.014765	1107.4
375.00	0.014668	1100.1
376.00	0.014796	1109.7
377.00	0.015370	1152.8
378.00	0.015529	1164.7
379.00	0.015476	1160.7
380.00	0.015995	1199.6
381.00	0.016317	1223.7
382.00	0.016304	1222.8
383.00	0.016662	1249.6
384.00	0.016953	1271.5
385.00	0.017141	1285.5
386.00	0.017283	1296.2
387.00	0.017555	1316.6
388.00	0.017657	1324.3
389.00	0.017765	1332.4
390.00	0.017740	1330.5
391.00	0.017981	1348.6
392.00	0.018046	1353.4
393.00	0.017980	1348.5
394.00	0.017887	1341.6
395.00	0.017874	1340.6
396.00	0.017989	1349.2
397.00	0.018252	1368.9
398.00	0.018173	1363.0
399.00	0.018015	1351.1
400.00	0.018051	1353.8
401.00	0.018341	1375.6
402.00	0.018429	1382.2
403.00	0.018338	1375.4
404.00	0.018484	1386.3
405.00	0.018530	1389.7
406.00	0.018842	1413.2
407.00	0.019073	1430.5
408.00	0.019392	1454.4
409.00	0.019597	1469.8
410.00	0.019642	1473.1
411.00	0.019901	1492.6
412.00	0.019995	1499.6
413.00	0.020436	1532.7
414.00	0.020615	1546.1
415.00	0.020962	1572.1
416.00	0.021411	1605.8
417.00	0.022183	1663.7
418.00	0.022432	1682.4
419.00	0.023100	1732.5
420.00	0.023905	1792.9
421.00	0.024751	1856.3
422.00	0.025700	1927.5
423.00	0.026758	2006.9
424.00	0.027623	2071.7
425.00	0.029189	2189.1
426.00	0.030716	2303.7
427.00	0.032451	2433.8
428.00	0.034089	2556.7
429.00	0.036304	2722.8
430.00	0.038581	2893.6
431.00	0.040500	3037.5
432.00	0.042890	3216.7
433.00	0.045744	3430.8
434.00	0.048432	3632.4
435.00	0.051140	3835.5
436.00	0.054113	4058.5
437.00	0.057343	4300.7
438.00	0.060415	4531.1
439.00	0.063389	4754.2
440.00	0.066759	5006.9
441.00	0.069582	5218.7
442.00	0.072753	5456.4
443.00	0.075934	5695.1
444.00	0.079308	5948.1
445.00	0.082861	6214.6
446.00	0.087120	6534.0
447.00	0.090914	6818.6
448.00	0.095560	7167.0
449.00	0.10099	7574.4
450.00	0.10602	7951.7
451.00	0.11215	8411.4
452.00	0.11886	8914.7
453.00	0.12633	9474.7
454.00	0.13452	10089
455.00	0.14319	10739
456.00	0.15267	11450
457.00	0.16369	12277
458.00	0.17506	13129
459.00	0.18627	13970
460.00	0.19829	14872
461.00	0.21111	15833
462.00	0.22392	16794
463.00	0.23829	17871
464.00	0.25187	18890
465.00	0.26407	19805
466.00	0.27672	20754
467.00	0.28830	21622
468.00	0.29948	22461
469.00	0.30912	23184
470.00	0.31872	23904
471.00	0.32791	24593
472.00	0.33590	25193
473.00	0.34199	25649
474.00	0.34852	26139
475.00	0.35469	26602
476.00	0.35994	26996
477.00	0.36608	27456
478.00	0.37363	28022
479.00	0.38198	28648
480.00	0.39156	29367
481.00	0.40327	30246
482.00	0.41777	31332
483.00	0.43436	32577
484.00	0.45255	33941
485.00	0.48263	36197
486.00	0.50059	37544
487.00	0.51786	38839
488.00	0.54954	41215
489.00	0.58670	44003
490.00	0.62095	46571
491.00	0.65829	49372
492.00	0.69735	52301
493.00	0.73713	55285
494.00	0.77636	58227
495.00	0.81462	61096
496.00	0.85449	64087
497.00	0.88779	66585
498.00	0.92113	69085
499.00	0.94810	71108
500.00	0.96871	72653
501.00	0.98710	74033
502.00	1.0000	75003
503.00	0.99651	74738
504.00	0.98440	73830
505.00	0.96817	72613
506.00	0.94060	70545
507.00	0.90851	68138
508.00	0.86776	65082
509.00	0.81764	61323
510.00	0.76846	57634
511.00	0.71584	53688
512.00	0.65772	49329
513.00	0.59867	44900
514.00	0.54004	40503
515.00	0.48264	36198
516.00	0.42691	32018
517.00	0.37617	28213
518.00	0.32773	24580
519.00	0.28311	21233
520.00	0.24482	18362
521.00	0.21005	15754
522.00	0.17831	13373
523.00	0.15044	11283
524.00	0.12705	9528.5
525.00	0.10735	8051.5
526.00	0.089513	6713.5
527.00	0.075597	5669.7
528.00	0.062938	4720.4
529.00	0.052156	3911.7
530.00	0.043382	3253.7
531.00	0.036200	2715.0
532.00	0.030146	2260.9
533.00	0.025129	1884.7
534.00	0.020937	1570.3
535.00	0.017542	1315.6
536.00	0.015148	1136.1
537.00	0.013106	982.93
538.00	0.010811	810.80
539.00	0.0091376	685.32
540.00	0.0075712	567.84
541.00	0.0071841	538.81
542.00	0.0062577	469.33
543.00	0.0054767	410.75
544.00	0.0047018	352.63
545.00	0.0046674	350.05
546.00	0.0042615	319.61
547.00	0.0038211	286.58
548.00	0.0034414	258.11
549.00	0.0032325	242.44
550.00	0.0030877	231.58
551.00	0.0031543	236.57
552.00	0.0028322	212.41
553.00	0.0026032	195.24
554.00	0.0021824	163.68
555.00	0.0024646	184.85
556.00	0.0024465	183.49
557.00	0.0020664	154.98
558.00	0.0022388	167.91
559.00	0.0021496	161.22
560.00	0.0021942	164.57
561.00	0.0021500	161.25
562.00	0.0020332	152.49
563.00	0.0019342	145.07
564.00	0.0019887	149.15
565.00	0.0019060	142.95
566.00	0.0018814	141.11
567.00	0.0019120	143.40
568.00	0.0020909	156.82
569.00	0.0020130	150.97
570.00	0.0020108	150.81
571.00	0.0020026	150.19
572.00	0.0017576	131.82
573.00	0.0018574	139.31
574.00	0.0018010	135.08
575.00	0.0017474	131.06
576.00	0.0017336	130.02
577.00	0.0018053	135.40
578.00	0.0018331	137.48
579.00	0.0018782	140.86
580.00	0.0018994	142.46
581.00	0.0017817	133.63
582.00	0.0016533	124.00
583.00	0.0015954	119.66
584.00	0.0017972	134.79
585.00	0.0017146	128.60
586.00	0.0015305	114.79
587.00	0.0017346	130.10
588.00	0.0016408	123.06
589.00	0.0016644	124.83
590.00	0.0016781	125.86
591.00	0.0016965	127.24
592.00	0.0017692	132.69
593.00	0.0016328	122.46
594.00	0.0016307	122.30
595.00	0.0016514	123.86
596.00	0.0016235	121.77
597.00	0.0015905	119.29
598.00	0.0015420	115.65
599.00	0.0017003	127.52
600.00	0.0016631	124.73
