Wavelength (nm)	O02 abs N
240.00	0.46351
240.25	0.45678
240.50	0.45084
240.75	0.44549
241.00	0.44092
241.25	0.43662
241.50	0.43311
241.75	0.43041
242.00	0.42950
242.25	0.42630
242.50	0.42496
242.75	0.42509
243.00	0.42473
243.25	0.42644
243.50	0.42666
243.75	0.42570
244.00	0.42816
244.25	0.42910
244.50	0.42986
244.75	0.43258
245.00	0.43525
245.25	0.43808
245.50	0.43989
245.75	0.44140
246.00	0.44398
246.25	0.44701
246.50	0.45173
246.75	0.45452
247.00	0.45836
247.25	0.46104
247.50	0.46370
247.75	0.46591
248.00	0.46999
248.25	0.47381
248.50	0.47810
248.75	0.48149
249.00	0.48412
249.25	0.48889
249.50	0.49309
249.75	0.49705
250.00	0.50127
250.25	0.50550
250.50	0.50980
250.75	0.51544
251.00	0.51915
251.25	0.52273
251.50	0.52656
251.75	0.53219
252.00	0.53458
252.25	0.53943
252.50	0.54253
252.75	0.54658
253.00	0.55175
253.25	0.55508
253.50	0.56078
253.75	0.56326
254.00	0.56719
254.25	0.57074
254.50	0.57265
254.75	0.57477
255.00	0.57642
255.25	0.58174
255.50	0.58281
255.75	0.58624
256.00	0.58781
256.25	0.59207
256.50	0.59479
256.75	0.59586
257.00	0.59738
257.25	0.60190
257.50	0.60097
257.75	0.60464
258.00	0.60774
258.25	0.60995
258.50	0.61162
258.75	0.61333
259.00	0.61445
259.25	0.61498
259.50	0.61764
259.75	0.62210
260.00	0.62420
260.25	0.62766
260.50	0.62801
260.75	0.63024
261.00	0.63272
261.25	0.63790
261.50	0.63919
261.75	0.64414
262.00	0.64595
262.25	0.64807
262.50	0.65375
262.75	0.65882
263.00	0.66180
263.25	0.66667
263.50	0.67050
263.75	0.67572
264.00	0.67897
264.25	0.68333
264.50	0.69033
264.75	0.69384
265.00	0.69735
265.25	0.70355
265.50	0.70861
265.75	0.71319
266.00	0.71984
266.25	0.72537
266.50	0.73347
266.75	0.73728
267.00	0.75003
267.25	0.75434
267.50	0.75919
267.75	0.76641
268.00	0.77386
268.25	0.78161
268.50	0.79033
268.75	0.79081
269.00	0.80177
269.25	0.80567
269.50	0.81560
269.75	0.82403
270.00	0.83168
270.25	0.83938
270.50	0.84239
270.75	0.85095
271.00	0.85822
271.25	0.86723
271.50	0.87343
271.75	0.87828
272.00	0.88568
272.25	0.89088
272.50	0.90142
272.75	0.90826
273.00	0.91146
273.25	0.91752
273.50	0.92656
273.75	0.93371
274.00	0.93551
274.25	0.94011
274.50	0.94566
274.75	0.94763
275.00	0.95787
275.25	0.96290
275.50	0.96466
275.75	0.97327
276.00	0.97687
276.25	0.98069
276.50	0.98182
276.75	0.98415
277.00	0.98875
277.25	0.99169
277.50	0.99214
277.75	0.99295
278.00	0.99374
278.25	0.99300
278.50	0.99701
278.75	0.99785
279.00	0.99716
279.25	0.99779
279.50	0.99764
279.75	1.0000
280.00	0.99866
280.25	0.99724
280.50	0.99429
280.75	0.99373
281.00	0.99161
281.25	0.99187
281.50	0.98789
281.75	0.98831
282.00	0.97948
282.25	0.98219
282.50	0.97684
282.75	0.96941
283.00	0.97215
283.25	0.96529
283.50	0.96056
283.75	0.95731
284.00	0.94746
284.25	0.94439
284.50	0.93741
284.75	0.93021
285.00	0.92526
285.25	0.91605
285.50	0.90989
285.75	0.90491
286.00	0.89744
286.25	0.88551
286.50	0.87812
286.75	0.87012
287.00	0.86183
287.25	0.85104
287.50	0.84059
287.75	0.83255
288.00	0.82091
288.25	0.81183
288.50	0.80571
288.75	0.79372
289.00	0.78347
289.25	0.77184
289.50	0.75963
289.75	0.74806
290.00	0.73949
290.25	0.72342
290.50	0.71551
290.75	0.70494
291.00	0.69495
291.25	0.68341
291.50	0.67239
291.75	0.66025
292.00	0.64783
292.25	0.63763
292.50	0.62699
292.75	0.61269
293.00	0.60409
293.25	0.59186
293.50	0.58261
293.75	0.57211
294.00	0.55962
294.25	0.55007
294.50	0.54017
294.75	0.53787
295.00	0.52780
295.25	0.51744
295.50	0.50533
295.75	0.49914
296.00	0.48647
296.25	0.47510
296.50	0.46519
296.75	0.45457
297.00	0.44370
297.25	0.43292
297.50	0.42158
297.75	0.41208
298.00	0.40108
298.25	0.39129
298.50	0.37865
298.75	0.36941
299.00	0.36027
299.25	0.35037
299.50	0.34201
299.75	0.33036
300.00	0.32299
300.25	0.31241
300.50	0.30342
300.75	0.29557
301.00	0.28461
301.25	0.27757
301.50	0.26862
301.75	0.26113
302.00	0.25366
302.25	0.24721
302.50	0.23929
302.75	0.23106
303.00	0.22518
303.25	0.21741
303.50	0.21066
303.75	0.20577
304.00	0.19990
304.25	0.19301
304.50	0.18738
304.75	0.18229
305.00	0.17806
305.25	0.17264
305.50	0.17039
305.75	0.16448
306.00	0.16085
306.25	0.15753
306.50	0.15244
306.75	0.14929
307.00	0.14462
307.25	0.14280
307.50	0.13907
307.75	0.13625
308.00	0.13534
308.25	0.13132
308.50	0.13036
308.75	0.12700
309.00	0.12546
309.25	0.12476
309.50	0.12386
309.75	0.13070
310.00	0.13151
310.25	0.12138
310.50	0.12312
310.75	0.12316
311.00	0.12412
311.25	0.11930
311.50	0.12066
311.75	0.12401
312.00	0.11621
312.25	0.11550
312.50	0.12157
312.75	0.11879
313.00	0.11924
313.25	0.11724
313.50	0.12085
313.75	0.11296
314.00	0.11621
314.25	0.11363
314.50	0.11578
314.75	0.11365
315.00	0.11118
315.25	0.11056
315.50	0.11546
315.75	0.11234
316.00	0.11469
316.25	0.10684
316.50	0.10758
316.75	0.10791
317.00	0.10425
317.25	0.10548
317.50	0.10125
317.75	0.10697
318.00	0.10539
318.25	0.10801
318.50	0.10809
318.75	0.10188
319.00	0.10443
319.25	0.10826
319.50	0.10020
319.75	0.10557
320.00	0.10071
320.25	0.10396
320.50	0.10270
320.75	0.10157
321.00	0.10084
321.25	0.10222
321.50	0.10353
321.75	0.10253
322.00	0.10115
322.25	0.10154
322.50	0.10134
322.75	0.10205
323.00	0.10075
323.25	0.10047
323.50	0.10146
323.75	0.10270
324.00	0.10237
324.25	0.10247
324.50	0.10118
324.75	0.10168
325.00	0.10037
325.25	0.10512
325.50	0.10439
325.75	0.10351
326.00	0.10446
326.25	0.10527
326.50	0.10612
326.75	0.10618
327.00	0.11222
327.25	0.11419
327.50	0.10745
327.75	0.11516
328.00	0.10808
328.25	0.11410
328.50	0.11219
328.75	0.11523
329.00	0.11701
329.25	0.11670
329.50	0.12128
329.75	0.11786
330.00	0.11546
330.25	0.11775
330.50	0.11763
330.75	0.11776
331.00	0.11814
331.25	0.11900
331.50	0.11752
331.75	0.11591
332.00	0.11392
332.25	0.11450
332.50	0.11385
332.75	0.11320
333.00	0.11494
333.25	0.11292
333.50	0.10914
333.75	0.11137
334.00	0.11178
334.25	0.10952
334.50	0.10958
334.75	0.11062
335.00	0.10909
335.25	0.11062
335.50	0.11022
335.75	0.10607
336.00	0.10562
336.25	0.10787
336.50	0.10846
336.75	0.10880
337.00	0.11048
337.25	0.10496
337.50	0.10519
337.75	0.10727
338.00	0.10781
338.25	0.10698
338.50	0.10564
338.75	0.10833
339.00	0.10481
339.25	0.10452
339.50	0.10568
339.75	0.10438
340.00	0.10612
340.25	0.10393
340.50	0.10646
340.75	0.10169
341.00	0.10303
341.25	0.10402
341.50	0.10272
341.75	0.10429
342.00	0.10778
342.25	0.10935
342.50	0.10833
342.75	0.10942
343.00	0.10957
343.25	0.11182
343.50	0.11607
343.75	0.11667
344.00	0.11987
344.25	0.12407
344.50	0.12607
344.75	0.12471
345.00	0.12862
345.25	0.13000
345.50	0.12983
345.75	0.13424
346.00	0.13761
346.25	0.13970
346.50	0.13808
346.75	0.13879
347.00	0.13814
347.25	0.13607
347.50	0.13373
347.75	0.13762
348.00	0.13497
348.25	0.13278
348.50	0.13130
348.75	0.13099
349.00	0.12861
349.25	0.12471
349.50	0.12408
349.75	0.12303
350.00	0.12100
350.25	0.11761
350.50	0.11138
350.75	0.11230
351.00	0.10942
351.25	0.10809
351.50	0.10509
351.75	0.10322
352.00	0.10060
352.25	0.10177
352.50	0.096201
352.75	0.096292
353.00	0.093800
353.25	0.094860
353.50	0.092878
353.75	0.091263
354.00	0.089784
354.25	0.089484
354.50	0.085840
354.75	0.091001
355.00	0.089431
355.25	0.089569
355.50	0.087999
355.75	0.085258
356.00	0.086390
356.25	0.085952
356.50	0.085193
356.75	0.084297
357.00	0.088640
357.25	0.086704
357.50	0.083741
357.75	0.085121
358.00	0.084029
358.25	0.087907
358.50	0.088071
358.75	0.085906
359.00	0.086998
359.25	0.086795
359.50	0.087861
359.75	0.087639
360.00	0.089627
360.25	0.088646
360.50	0.089202
360.75	0.091014
361.00	0.087423
361.25	0.092460
361.50	0.092133
361.75	0.093277
362.00	0.094965
362.25	0.093421
362.50	0.092296
362.75	0.095318
363.00	0.096253
363.25	0.096188
363.50	0.093022
363.75	0.095122
364.00	0.096914
364.25	0.097967
364.50	0.098824
364.75	0.099308
365.00	0.10098
365.25	0.10100
365.50	0.10122
365.75	0.10221
366.00	0.10308
366.25	0.10521
366.50	0.10729
366.75	0.10510
367.00	0.10814
367.25	0.10761
367.50	0.10991
367.75	0.10846
368.00	0.11162
368.25	0.11196
368.50	0.11470
368.75	0.11580
369.00	0.11545
369.25	0.11744
369.50	0.11625
369.75	0.11966
370.00	0.11656
370.25	0.11904
370.50	0.12143
370.75	0.12409
371.00	0.12254
371.25	0.12486
371.50	0.12451
371.75	0.12651
372.00	0.12792
372.25	0.12943
372.50	0.12803
372.75	0.13431
373.00	0.13309
373.25	0.13551
373.50	0.13570
373.75	0.13819
374.00	0.13548
374.25	0.13998
374.50	0.13962
374.75	0.13857
375.00	0.14102
375.25	0.14248
375.50	0.14207
375.75	0.14545
376.00	0.14654
376.25	0.14989
376.50	0.15245
376.75	0.15040
377.00	0.15535
377.25	0.15660
377.50	0.15611
377.75	0.15664
378.00	0.16080
378.25	0.16133
378.50	0.16456
378.75	0.16289
379.00	0.16652
379.25	0.16531
379.50	0.16624
379.75	0.17014
380.00	0.17186
380.25	0.17362
380.50	0.17685
380.75	0.17719
381.00	0.17850
381.25	0.17957
381.50	0.18035
381.75	0.18478
382.00	0.18394
382.25	0.18855
382.50	0.18934
382.75	0.18958
383.00	0.19349
383.25	0.19215
383.50	0.19504
383.75	0.19620
384.00	0.19924
384.25	0.20164
384.50	0.20166
384.75	0.20408
385.00	0.20616
385.25	0.20832
385.50	0.20998
385.75	0.20951
386.00	0.21335
386.25	0.21658
386.50	0.21614
386.75	0.21725
387.00	0.22320
387.25	0.22331
387.50	0.22434
387.75	0.22599
388.00	0.22746
388.25	0.22828
388.50	0.23175
388.75	0.23359
389.00	0.23793
389.25	0.23776
389.50	0.23869
389.75	0.24073
390.00	0.24428
390.25	0.24355
390.50	0.24788
390.75	0.24803
391.00	0.25049
391.25	0.25346
391.50	0.25449
391.75	0.25644
392.00	0.25903
392.25	0.26049
392.50	0.26377
392.75	0.26489
393.00	0.26714
393.25	0.26712
393.50	0.27199
393.75	0.27383
394.00	0.27270
394.25	0.27614
394.50	0.27913
394.75	0.28161
395.00	0.28317
395.25	0.28491
395.50	0.28706
395.75	0.28962
396.00	0.29205
396.25	0.29387
396.50	0.29682
396.75	0.29872
397.00	0.30145
397.25	0.30464
397.50	0.30512
397.75	0.30715
398.00	0.30710
398.25	0.31074
398.50	0.31217
398.75	0.31548
399.00	0.31607
399.25	0.31812
399.50	0.32199
399.75	0.32093
400.00	0.32495
400.25	0.32777
400.50	0.32925
400.75	0.32928
401.00	0.33056
401.25	0.33258
401.50	0.33549
401.75	0.33590
402.00	0.33865
402.25	0.34072
402.50	0.34154
402.75	0.34312
403.00	0.34693
403.25	0.34830
403.50	0.35146
403.75	0.35153
404.00	0.35448
404.25	0.35670
404.50	0.35709
404.75	0.36128
405.00	0.36175
405.25	0.36266
405.50	0.36619
405.75	0.36637
406.00	0.36992
406.25	0.37194
406.50	0.37290
406.75	0.37436
407.00	0.37758
407.25	0.37642
407.50	0.38019
407.75	0.38106
408.00	0.38286
408.25	0.38693
408.50	0.38645
408.75	0.39201
409.00	0.39023
409.25	0.39294
409.50	0.39242
409.75	0.39651
410.00	0.39758
410.25	0.39899
410.50	0.40198
410.75	0.40404
411.00	0.40452
411.25	0.40553
411.50	0.40547
411.75	0.41142
412.00	0.40930
412.25	0.41275
412.50	0.41548
412.75	0.41458
413.00	0.41813
413.25	0.41666
413.50	0.41907
413.75	0.42014
414.00	0.42290
414.25	0.42254
414.50	0.42395
414.75	0.42520
415.00	0.42651
415.25	0.42797
415.50	0.42942
415.75	0.43167
416.00	0.43179
416.25	0.43424
416.50	0.43510
416.75	0.43488
417.00	0.43780
417.25	0.43828
417.50	0.44034
417.75	0.44124
418.00	0.44417
418.25	0.44208
418.50	0.44744
418.75	0.44610
419.00	0.44882
419.25	0.44809
419.50	0.44924
419.75	0.45033
420.00	0.45154
420.25	0.45327
420.50	0.45417
420.75	0.45400
421.00	0.45494
421.25	0.45740
421.50	0.45693
421.75	0.45642
422.00	0.45829
422.25	0.45939
422.50	0.45971
422.75	0.45993
423.00	0.46155
423.25	0.46011
423.50	0.46097
423.75	0.46165
424.00	0.46244
424.25	0.46352
424.50	0.46408
424.75	0.46408
425.00	0.46257
425.25	0.46523
425.50	0.46537
425.75	0.46455
426.00	0.46475
426.25	0.46590
426.50	0.46500
426.75	0.46624
427.00	0.46486
427.25	0.46731
427.50	0.46601
427.75	0.46641
428.00	0.46658
428.25	0.46611
428.50	0.46608
428.75	0.46494
429.00	0.46563
429.25	0.46459
429.50	0.46599
429.75	0.46372
430.00	0.46259
430.25	0.46572
430.50	0.46635
430.75	0.46306
431.00	0.46286
431.25	0.46408
431.50	0.46037
431.75	0.46158
432.00	0.46005
432.25	0.46155
432.50	0.45952
432.75	0.45956
433.00	0.46009
433.25	0.45845
433.50	0.45846
433.75	0.45737
434.00	0.45747
434.25	0.45576
434.50	0.45511
434.75	0.45445
435.00	0.45362
435.25	0.45342
435.50	0.45052
435.75	0.44835
436.00	0.44589
436.25	0.44738
436.50	0.44689
436.75	0.44202
437.00	0.44587
437.25	0.44369
437.50	0.44433
437.75	0.43969
438.00	0.43921
438.25	0.43649
438.50	0.43492
438.75	0.43395
439.00	0.43238
439.25	0.43487
439.50	0.43154
439.75	0.43047
440.00	0.42855
440.25	0.42571
440.50	0.42496
440.75	0.42267
441.00	0.42141
441.25	0.41980
441.50	0.41876
441.75	0.41844
442.00	0.41604
442.25	0.41310
442.50	0.41337
442.75	0.41158
443.00	0.40872
443.25	0.40871
443.50	0.40496
443.75	0.40274
444.00	0.40230
444.25	0.40045
444.50	0.39741
444.75	0.39764
445.00	0.39548
445.25	0.39401
445.50	0.39077
445.75	0.38866
446.00	0.38730
446.25	0.38491
446.50	0.38015
446.75	0.38017
447.00	0.38147
447.25	0.37589
447.50	0.37434
447.75	0.37035
448.00	0.36990
448.25	0.36836
448.50	0.36504
448.75	0.36300
449.00	0.36192
449.25	0.35879
449.50	0.35429
449.75	0.35307
450.00	0.35157
450.25	0.34859
450.50	0.34617
450.75	0.34218
451.00	0.34006
451.25	0.33772
451.50	0.33634
451.75	0.33285
452.00	0.33105
452.25	0.32962
452.50	0.32694
452.75	0.32456
453.00	0.32021
453.25	0.32047
453.50	0.31578
453.75	0.31444
454.00	0.31112
454.25	0.30729
454.50	0.30798
454.75	0.30590
455.00	0.30248
455.25	0.30017
455.50	0.29887
455.75	0.29547
456.00	0.29278
456.25	0.28865
456.50	0.28666
456.75	0.28461
457.00	0.28335
457.25	0.27841
457.50	0.27643
457.75	0.27175
458.00	0.27076
458.25	0.26750
458.50	0.26516
458.75	0.26276
459.00	0.25946
459.25	0.25702
459.50	0.25430
459.75	0.25193
460.00	0.24732
460.25	0.24712
460.50	0.24216
460.75	0.24081
461.00	0.23685
461.25	0.23452
461.50	0.23242
461.75	0.22918
462.00	0.22669
462.25	0.22182
462.50	0.21975
462.75	0.21727
463.00	0.21455
463.25	0.21130
463.50	0.20830
463.75	0.20915
464.00	0.20416
464.25	0.20232
464.50	0.19848
464.75	0.19765
465.00	0.19371
465.25	0.19145
465.50	0.18975
465.75	0.18723
466.00	0.18421
466.25	0.18082
466.50	0.17941
466.75	0.17851
467.00	0.17413
467.25	0.17404
467.50	0.16812
467.75	0.16876
468.00	0.16558
468.25	0.16294
468.50	0.16046
468.75	0.15865
469.00	0.15564
469.25	0.15341
469.50	0.15232
469.75	0.14951
470.00	0.14713
470.25	0.14535
470.50	0.14261
470.75	0.13993
471.00	0.13781
471.25	0.13707
471.50	0.13348
471.75	0.13108
472.00	0.13042
472.25	0.12811
472.50	0.12615
472.75	0.12316
473.00	0.12304
473.25	0.12044
473.50	0.11880
473.75	0.11703
474.00	0.11468
474.25	0.11304
474.50	0.11147
474.75	0.11121
475.00	0.10718
475.25	0.10451
475.50	0.10311
475.75	0.10058
476.00	0.098843
476.25	0.097247
476.50	0.096914
476.75	0.096489
477.00	0.092780
477.25	0.090772
477.50	0.090687
477.75	0.087946
478.00	0.087397
478.25	0.085755
478.50	0.082851
478.75	0.083702
479.00	0.081334
479.25	0.080117
479.50	0.079535
479.75	0.079254
480.00	0.078201
480.25	0.076396
480.50	0.072608
480.75	0.072537
481.00	0.071503
481.25	0.070666
481.50	0.068710
481.75	0.066820
482.00	0.066552
482.25	0.065335
482.50	0.065525
482.75	0.064890
483.00	0.062340
483.25	0.061306
483.50	0.062300
483.75	0.058945
484.00	0.058350
484.25	0.058297
484.50	0.056721
484.75	0.056911
485.00	0.053379
485.25	0.052293
485.50	0.052914
485.75	0.052548
486.00	0.050965
486.25	0.051161
486.50	0.049382
486.75	0.049664
487.00	0.048369
487.25	0.046282
487.50	0.046661
487.75	0.046550
488.00	0.045556
488.25	0.045922
488.50	0.044941
488.75	0.042554
489.00	0.042502
489.25	0.041933
489.50	0.040971
489.75	0.040539
490.00	0.040755
490.25	0.040304
490.50	0.039787
490.75	0.038034
491.00	0.039355
491.25	0.036890
491.50	0.037158
491.75	0.036798
492.00	0.036118
492.25	0.034385
492.50	0.033881
492.75	0.033449
493.00	0.032056
493.25	0.033789
493.50	0.034659
493.75	0.033384
494.00	0.032396
494.25	0.032579
494.50	0.032455
494.75	0.031297
495.00	0.030342
495.25	0.030218
495.50	0.030310
495.75	0.030231
496.00	0.029047
496.25	0.029819
496.50	0.029773
496.75	0.029839
497.00	0.028766
497.25	0.029374
497.50	0.026536
497.75	0.028485
498.00	0.027654
498.25	0.024443
498.50	0.027000
498.75	0.025129
499.00	0.026680
499.25	0.025502
499.50	0.024652
499.75	0.026909
500.00	0.024246
500.25	0.024358
500.50	0.023939
500.75	0.023049
501.00	0.024142
501.25	0.024031
501.50	0.022565
501.75	0.022807
502.00	0.022631
502.25	0.024502
502.50	0.023265
502.75	0.021395
503.00	0.022827
503.25	0.023161
503.50	0.021604
503.75	0.023704
504.00	0.021754
504.25	0.021637
504.50	0.022415
504.75	0.022153
505.00	0.021022
505.25	0.021336
505.50	0.022108
505.75	0.021283
506.00	0.021768
506.25	0.021964
506.50	0.022225
506.75	0.021113
507.00	0.018948
507.25	0.021270
507.50	0.021604
507.75	0.021283
508.00	0.021270
508.25	0.019544
508.50	0.019413
508.75	0.019727
509.00	0.020100
509.25	0.018988
509.50	0.021768
509.75	0.019825
510.00	0.019766
510.25	0.018294
510.50	0.017241
510.75	0.021048
511.00	0.020119
511.25	0.017791
511.50	0.018818
511.75	0.018242
512.00	0.019334
512.25	0.018798
512.50	0.019478
512.75	0.017673
513.00	0.019714
513.25	0.019511
513.50	0.017202
513.75	0.019001
514.00	0.019027
514.25	0.019007
514.50	0.018137
514.75	0.017732
515.00	0.017634
515.25	0.018425
515.50	0.018451
515.75	0.015155
516.00	0.016509
516.25	0.018484
516.50	0.018981
516.75	0.016999
517.00	0.018916
517.25	0.017967
517.50	0.017882
517.75	0.017882
518.00	0.017084
518.25	0.017725
518.50	0.018307
518.75	0.019275
519.00	0.016803
519.25	0.017058
519.50	0.019243
519.75	0.017621
520.00	0.018641
520.25	0.019334
520.50	0.016829
520.75	0.016940
521.00	0.015475
521.25	0.017581
521.50	0.014638
521.75	0.018216
522.00	0.016757
522.25	0.016947
522.50	0.017431
522.75	0.017202
523.00	0.018837
523.25	0.017032
523.50	0.015580
523.75	0.017065
524.00	0.017895
524.25	0.017274
524.50	0.018432
524.75	0.017143
525.00	0.017523
525.25	0.017346
525.50	0.017091
525.75	0.017333
526.00	0.017215
526.25	0.016594
526.50	0.017411
526.75	0.016797
527.00	0.015011
527.25	0.016116
527.50	0.016005
527.75	0.014756
528.00	0.016476
528.25	0.016705
528.50	0.016797
528.75	0.018831
529.00	0.015449
529.25	0.018608
529.50	0.017045
529.75	0.016908
530.00	0.016541
530.25	0.016352
530.50	0.016116
530.75	0.019145
531.00	0.016770
531.25	0.016025
531.50	0.016188
531.75	0.016123
532.00	0.017019
532.25	0.016803
532.50	0.015325
532.75	0.017980
533.00	0.016751
533.25	0.017032
533.50	0.015855
533.75	0.015227
534.00	0.014965
534.25	0.016777
534.50	0.016012
534.75	0.015914
535.00	0.016888
535.25	0.015691
535.50	0.016895
535.75	0.015482
536.00	0.015004
536.25	0.013736
536.50	0.016299
536.75	0.012898
537.00	0.014416
537.25	0.015096
537.50	0.015567
537.75	0.014932
538.00	0.016169
538.25	0.014324
538.50	0.016744
538.75	0.014592
539.00	0.013984
539.25	0.014442
539.50	0.015933
539.75	0.015658
540.00	0.015227
540.25	0.013801
540.50	0.016816
540.75	0.015168
541.00	0.015717
541.25	0.015083
541.50	0.014475
541.75	0.014690
542.00	0.013225
542.25	0.013912
542.50	0.014167
542.75	0.013108
543.00	0.014547
543.25	0.014475
543.50	0.012885
543.75	0.014180
544.00	0.013964
544.25	0.014324
544.50	0.014743
544.75	0.014004
545.00	0.013788
545.25	0.015024
545.50	0.012898
545.75	0.014200
546.00	0.012892
546.25	0.013919
546.50	0.013062
546.75	0.014324
547.00	0.012833
547.25	0.014789
547.50	0.012905
547.75	0.014076
548.00	0.011531
548.25	0.014167
548.50	0.015116
548.75	0.012251
549.00	0.014560
549.25	0.014887
549.50	0.014828
549.75	0.013023
550.00	0.011996
550.25	0.012133
550.50	0.010949
550.75	0.013788
551.00	0.013029
551.25	0.012028
551.50	0.012133
551.75	0.014854
552.00	0.012996
552.25	0.011145
552.50	0.013147
552.75	0.012022
553.00	0.012669
553.25	0.010962
553.50	0.0094644
553.75	0.012270
554.00	0.012002
554.25	0.013605
554.50	0.012140
554.75	0.011852
555.00	0.013722
555.25	0.011257
555.50	0.011472
555.75	0.011571
556.00	0.011996
556.25	0.011453
556.50	0.011826
556.75	0.0098569
557.00	0.011505
557.25	0.011950
557.50	0.010864
557.75	0.010400
558.00	0.0092747
558.25	0.011675
558.50	0.0093205
558.75	0.0099419
559.00	0.0086207
559.25	0.011015
559.50	0.011597
559.75	0.012238
560.00	0.011361
560.25	0.0098045
560.50	0.011420
560.75	0.012597
561.00	0.012460
561.25	0.0095887
561.50	0.0099811
561.75	0.010642
562.00	0.0088888
562.25	0.0092355
562.50	0.010759
562.75	0.0096999
563.00	0.010040
563.25	0.0097915
563.50	0.0086599
563.75	0.0073845
564.00	0.010118
564.25	0.0080124
564.50	0.0077638
564.75	0.0086403
565.00	0.0092224
565.25	0.0088954
565.50	0.010871
565.75	0.0081890
566.00	0.0078031
566.25	0.0086795
566.50	0.0095756
566.75	0.0084964
567.00	0.0092682
567.25	0.0095233
567.50	0.010007
567.75	0.0080058
568.00	0.0095560
568.25	0.0093859
568.50	0.0083525
568.75	0.0080451
569.00	0.0083721
569.25	0.010086
569.50	0.0082217
569.75	0.0090066
570.00	0.0062725
570.25	0.0081890
570.50	0.0064688
570.75	0.0067827
571.00	0.0077246
571.25	0.0062137
571.50	0.0074041
571.75	0.0063772
572.00	0.0074760
572.25	0.0063707
572.50	0.0074106
572.75	0.0083067
573.00	0.0081432
573.25	0.0068612
573.50	0.0060175
573.75	0.0061875
574.00	0.0080712
574.25	0.0073975
574.50	0.0075480
574.75	0.0063837
575.00	0.0070313
575.25	0.0070444
575.50	0.0071425
575.75	0.0071163
576.00	0.0079731
576.25	0.0078816
576.50	0.0072602
576.75	0.0065996
577.00	0.0064426
577.25	0.0071359
577.50	0.0060109
577.75	0.0052522
578.00	0.0060829
578.25	0.0066519
578.50	0.0071098
578.75	0.0062137
579.00	0.0057362
579.25	0.0059193
579.50	0.0065669
579.75	0.0063052
580.00	0.0058343
580.25	0.0060894
580.50	0.0067827
580.75	0.0081955
581.00	0.0063249
581.25	0.0068939
581.50	0.0040291
581.75	0.0048401
582.00	0.0065080
582.25	0.0044281
582.50	0.0065211
582.75	0.0053241
583.00	0.0052064
583.25	0.0059651
583.50	0.0050233
583.75	0.0071359
584.00	0.0065669
584.25	0.0064164
584.50	0.0040225
584.75	0.0054223
585.00	0.0054811
585.25	0.0045654
585.50	0.0043430
585.75	0.0037478
586.00	0.0058801
586.25	0.0037217
586.50	0.0069201
586.75	0.0040749
587.00	0.0056708
587.25	0.0054615
587.50	0.0061548
587.75	0.0058539
588.00	0.0049971
588.25	0.0040683
588.50	0.0038132
588.75	0.0038263
589.00	0.0040945
589.25	0.0037740
589.50	0.0057689
589.75	0.0040487
590.00	0.0046308
590.25	0.0033488
590.50	0.0048336
590.75	0.0039571
591.00	0.0037217
591.25	0.0047616
591.50	0.0030284
591.75	0.0050560
592.00	0.0029891
592.25	0.0043300
592.50	0.0041010
592.75	0.0068481
593.00	0.0050756
593.25	0.0041926
593.50	0.0050429
593.75	0.0039571
594.00	0.0045393
594.25	0.0025770
594.50	0.0044804
594.75	0.0045458
595.00	0.0029826
595.25	0.0044150
595.50	0.0033031
595.75	0.0020996
596.00	0.0024789
596.25	0.0036366
596.50	0.0048270
596.75	0.0029368
597.00	0.0040749
597.25	0.0032246
597.50	0.0037020
597.75	0.0011577
598.00	0.0023874
598.25	0.0039898
598.50	0.0045654
598.75	0.0043954
599.00	0.0031853
599.25	0.0031265
599.50	0.0026948
599.75	0.0046897
600.00	0.0030218
600.25	0.0029368
600.50	0.0035843
600.75	0.0014520
601.00	0.0044935
601.25	0.0025901
601.50	0.0033685
601.75	0.0028714
602.00	0.0028518
602.25	0.0029826
602.50	0.0028583
602.75	0.0034143
603.00	0.0015109
603.25	0.0022696
603.50	0.0023808
603.75	0.0020734
604.00	0.0025967
604.25	0.0019164
604.50	0.0024004
604.75	0.0022565
605.00	0.0037151
605.25	0.0024986
605.50	0.0012820
605.75	0.0015959
606.00	0.0029629
606.25	0.0032442
606.50	0.0020276
606.75	0.0020080
607.00	0.0045262
607.25	0.0035189
607.50	0.0036039
607.75	0.0029368
608.00	0.0030741
608.25	0.0036105
608.50	0.0019753
608.75	0.0032900
609.00	0.0024528
609.25	0.0028125
609.50	0.0038459
609.75	0.0035516
610.00	0.0021061
610.25	0.0029564
610.50	0.0040160
610.75	0.0018445
611.00	0.0024135
611.25	0.0020145
611.50	0.0041795
611.75	0.0031461
612.00	0.0030087
612.25	0.0027667
612.50	0.0028779
612.75	0.0030480
613.00	0.0034143
613.25	0.0025247
613.50	0.00066715
613.75	0.0024462
614.00	0.0024004
614.25	0.0026424
614.50	0.0018379
614.75	0.0031068
615.00	0.0025770
615.25	0.0020342
615.50	0.0015698
615.75	0.0027013
616.00	0.0032507
616.25	0.0030022
616.50	0.0013605
616.75	0.0047551
617.00	0.0017856
617.25	0.0029041
617.50	0.0022500
617.75	0.0028190
618.00	0.0015763
618.25	0.0034862
618.50	0.0029368
618.75	0.0012558
619.00	0.0027733
619.25	0.0025901
619.50	0.0029499
619.75	0.0036955
620.00	0.0038394
620.25	0.0029237
620.50	0.0025836
620.75	0.0028910
621.00	0.0035385
621.25	0.0029760
621.50	0.0020930
621.75	0.0029499
622.00	0.0027144
622.25	0.0027144
622.50	0.00069986
622.75	0.00070640
623.00	0.0028190
623.25	0.0022435
623.50	0.0029891
623.75	0.0037609
624.00	0.0013932
624.25	0.00052980
624.50	0.00097457
624.75	0.0025051
625.00	0.0011904
625.25	0.0020603
625.50	0.0012754
625.75	0.0010988
626.00	0.0022042
626.25	0.0016221
626.50	0.0016679
626.75	0.0020211
627.00	0.0020930
627.25	0.0031853
627.50	0.0024789
627.75	0.0013866
628.00	0.0014193
628.25	0.00019622
628.50	0.0025182
628.75	0.0027275
629.00	0.0020996
629.25	0.0029302
629.50	0.0027667
629.75	0.0011773
630.00	0.00064099
630.25	0.0016286
630.50	0.0011250
630.75	0.00070640
631.00	0.00054942
631.25	0.0017529
631.50	0.0018118
631.75	0.0022173
632.00	0.0023416
632.25	0.0029629
632.50	0.0029760
632.75	0.0029499
633.00	0.0022893
633.25	0.00057558
633.50	0.0016090
633.75	0.0023154
634.00	0.00056904
634.25	0.0016090
634.50	0.0031788
634.75	0.0022958
635.00	0.0035909
635.25	0.00037936
635.50	0.0015240
635.75	0.00082413
636.00	0.0018968
636.25	0.0029564
636.50	0.00015044
636.75	0.0012297
637.00	0.00080451
637.25	0.0015501
637.50	0.0029106
637.75	0.00090262
638.00	0.0023939
638.25	0.0023220
638.50	0.0025182
638.75	0.0018706
639.00	0.0013997
639.25	0.0013736
639.50	0.00088954
639.75	0.0014520
640.00	0.0027929
640.25	0.0016156
640.50	0.0016548
640.75	0.0020865
641.00	0.0027340
641.25	0.0026686
641.50	0.0032638
641.75	0.0014390
642.00	0.0028714
642.25	0.0010988
642.50	0.0019295
642.75	0.0024855
643.00	0.0013670
643.25	0.0013343
643.50	0.0017529
643.75	0.00074564
644.00	0.0028518
644.25	-0.00015698
644.50	0.0026490
644.75	0.0020145
645.00	0.0026555
645.25	0.00079143
645.50	0.0010858
645.75	0.0018772
646.00	0.00051672
646.25	0.0019818
646.50	0.0016025
646.75	0.0015632
647.00	0.0016548
647.25	0.0024855
647.50	0.0023220
647.75	0.00095494
648.00	0.0027863
648.25	0.00034666
648.50	0.0015436
648.75	0.0018968
649.00	0.0010858
649.25	0.0034077
649.50	0.0021781
649.75	0.0015698
650.00	0.0016613
650.25	0.00080451
650.50	0.00043169
650.75	0.0011708
651.00	0.0019426
651.25	0.0020015
651.50	0.0019688
651.75	0.0027602
652.00	0.0023220
652.25	0.0029956
652.50	0.0014128
652.75	0.0025313
653.00	0.0025836
653.25	0.0019295
653.50	0.0023089
653.75	0.0024528
654.00	0.0017071
654.25	0.0018510
654.50	0.0014913
654.75	0.00083721
655.00	0.0012166
655.25	0.0014063
655.50	0.0029433
655.75	0.0021061
656.00	0.0020996
656.25	0.0028845
656.50	0.0023285
656.75	0.0027340
657.00	0.0025247
657.25	0.0018249
657.50	0.00060829
657.75	0.0018249
658.00	0.0024920
658.25	0.0018510
658.50	0.0021584
658.75	0.00027471
659.00	0.0026228
659.25	0.0031526
659.50	0.0021388
659.75	0.0025901
660.00	0.0013212
660.25	0.0021323
660.50	0.0016548
660.75	0.0021388
661.00	0.0016352
661.25	0.0020734
661.50	0.0010204
661.75	0.0012885
662.00	0.0021715
662.25	0.0017856
662.50	0.0034143
662.75	0.0011315
663.00	0.0021061
663.25	0.0024004
663.50	0.0016875
663.75	0.0026228
664.00	0.0012427
664.25	0.0019557
664.50	0.00073910
664.75	0.0017529
665.00	0.0019557
665.25	0.0023743
665.50	0.0022565
665.75	0.0013408
666.00	0.0027929
666.25	0.0026752
666.50	0.0016025
666.75	0.0017856
667.00	0.0012689
667.25	0.0014913
667.50	0.0020080
667.75	0.0013408
668.00	0.0010138
668.25	0.0019295
668.50	0.0013801
668.75	0.0014193
669.00	0.0024528
669.25	0.0016352
669.50	0.00085683
669.75	0.0020734
670.00	0.0013866
670.25	0.00077180
670.50	0.0026359
670.75	0.0026032
671.00	0.0017529
671.25	0.0014913
671.50	0.0010334
671.75	0.00086337
672.00	0.00073256
672.25	0.0030218
672.50	0.0020080
672.75	0.0010531
673.00	0.0027798
673.25	0.00036628
673.50	0.0010858
673.75	0.0028387
674.00	0.0012427
674.25	0.00089608
674.50	-0.00036628
674.75	0.0013539
675.00	0.0021192
675.25	0.00042515
675.50	0.0012885
675.75	0.0022827
676.00	0.0019818
676.25	0.0017333
676.50	0.0026686
676.75	0.0017725
677.00	0.0014128
677.25	0.0019033
677.50	0.0017333
677.75	0.00076526
678.00	0.0011839
678.25	0.0014847
678.50	0.0014978
678.75	0.0015894
679.00	-0.00021584
679.25	0.0013016
679.50	0.0018576
679.75	0.0015371
680.00	0.0011381
680.25	0.0011054
680.50	0.0017464
680.75	0.0014390
681.00	0.00047093
681.25	0.0016417
681.50	0.0010073
681.75	0.0021257
682.00	0.00098111
682.25	0.0023285
682.50	0.00079797
682.75	0.0018576
683.00	0.00073910
683.25	-0.00014390
683.50	0.0016940
683.75	0.00051672
684.00	0.0013932
684.25	0.0013736
684.50	0.0030807
684.75	0.0016940
685.00	0.00036628
685.25	0.00072602
685.50	0.0015305
685.75	0.0019164
686.00	0.0022304
686.25	0.0020799
686.50	0.00067369
686.75	0.0013932
687.00	0.00082413
687.25	0.00098765
687.50	0.0028648
687.75	0.00051018
688.00	0.0020734
688.25	0.0016613
688.50	0.0012493
688.75	0.0021650
689.00	6.5407e-05
689.25	0.0011642
689.50	0.0020603
689.75	0.00091570
690.00	0.0018052
690.25	0.00098765
690.50	0.0036236
690.75	0.0014978
691.00	0.0013343
691.25	0.00042515
691.50	0.00011119
691.75	0.00075218
692.00	0.0013081
692.25	0.00031395
692.50	0.0013605
692.75	0.0016156
693.00	0.0010661
693.25	0.0014128
693.50	0.0013147
693.75	0.00079143
694.00	0.0023285
694.25	0.0010073
694.50	0.0024135
694.75	0.0011446
695.00	0.0022958
695.25	-0.00037936
695.50	0.00070640
695.75	0.0012231
696.00	0.0013932
696.25	0.0017856
696.50	0.0010727
696.75	0.0020145
697.00	0.00082413
697.25	0.00091570
697.50	0.0014520
697.75	-3.9244e-05
698.00	0.00011119
698.25	0.0015632
698.50	0.0014978
698.75	0.00087646
699.00	0.00038590
699.25	0.0013932
699.50	0.0019818
699.75	0.0017791
700.00	0.00089608
