Wavelength (nm)	O13 abs N
200.00	0.76106
201.00	0.90407
202.00	0.97590
203.00	1.0000
204.00	0.98529
205.00	0.94509
206.00	0.89323
207.00	0.84303
208.00	0.80036
209.00	0.76726
210.00	0.74342
211.00	0.72550
212.00	0.71078
213.00	0.69571
214.00	0.67883
215.00	0.66070
216.00	0.64163
217.00	0.62388
218.00	0.60806
219.00	0.59553
220.00	0.58546
221.00	0.57836
222.00	0.57297
223.00	0.56884
224.00	0.56577
225.00	0.56357
226.00	0.56100
227.00	0.55559
228.00	0.54456
229.00	0.52708
230.00	0.50208
231.00	0.47117
232.00	0.43631
233.00	0.39597
234.00	0.34907
235.00	0.29596
236.00	0.24488
237.00	0.20032
238.00	0.16494
239.00	0.13802
240.00	0.11684
241.00	0.10047
242.00	0.088023
243.00	0.078402
244.00	0.071317
245.00	0.066427
246.00	0.063237
247.00	0.061526
248.00	0.060984
249.00	0.061462
250.00	0.062825
251.00	0.064996
252.00	0.067859
253.00	0.071487
254.00	0.075937
255.00	0.081101
256.00	0.087088
257.00	0.093715
258.00	0.10128
259.00	0.10973
260.00	0.11902
261.00	0.12929
262.00	0.14032
263.00	0.15242
264.00	0.16543
265.00	0.17930
266.00	0.19409
267.00	0.20944
268.00	0.22543
269.00	0.24204
270.00	0.25913
271.00	0.27620
272.00	0.29365
273.00	0.31121
274.00	0.32849
275.00	0.34508
276.00	0.36088
277.00	0.37530
278.00	0.38804
279.00	0.39908
280.00	0.40812
281.00	0.41503
282.00	0.41989
283.00	0.42254
284.00	0.42318
285.00	0.42176
286.00	0.41763
287.00	0.40979
288.00	0.39780
289.00	0.38148
290.00	0.36117
291.00	0.33841
292.00	0.31419
293.00	0.28958
294.00	0.26538
295.00	0.24228
296.00	0.22070
297.00	0.20092
298.00	0.18293
299.00	0.16713
300.00	0.15310
301.00	0.14086
302.00	0.13025
303.00	0.12090
304.00	0.11301
305.00	0.10641
306.00	0.10094
307.00	0.096457
308.00	0.092988
309.00	0.090267
310.00	0.088185
311.00	0.086744
312.00	0.085780
313.00	0.085116
314.00	0.084737
315.00	0.084638
316.00	0.084700
317.00	0.084940
318.00	0.085350
319.00	0.085751
320.00	0.086407
321.00	0.087036
322.00	0.087625
323.00	0.088166
324.00	0.088587
325.00	0.088966
326.00	0.089183
327.00	0.089293
328.00	0.089264
329.00	0.089080
330.00	0.088792
331.00	0.088440
332.00	0.087968
333.00	0.087417
334.00	0.086728
335.00	0.085831
336.00	0.084839
337.00	0.083656
338.00	0.082175
339.00	0.080609
340.00	0.078787
341.00	0.076717
342.00	0.074454
343.00	0.072111
344.00	0.069572
345.00	0.066918
346.00	0.064230
347.00	0.061310
348.00	0.058464
349.00	0.055598
350.00	0.052707
351.00	0.049924
352.00	0.047147
353.00	0.044410
354.00	0.041754
355.00	0.039066
356.00	0.036629
357.00	0.034333
358.00	0.032142
359.00	0.030089
360.00	0.028069
361.00	0.026154
362.00	0.024202
363.00	0.022506
364.00	0.020877
365.00	0.019437
366.00	0.018046
367.00	0.016727
368.00	0.015548
369.00	0.014519
370.00	0.013490
371.00	0.012580
372.00	0.011768
373.00	0.011120
374.00	0.010315
375.00	0.0097638
376.00	0.0091982
377.00	0.0086087
378.00	0.0081177
379.00	0.0077289
380.00	0.0072256
381.00	0.0068133
382.00	0.0065444
383.00	0.0062065
384.00	0.0059183
385.00	0.0056641
386.00	0.0054466
387.00	0.0050876
388.00	0.0049320
389.00	0.0046744
390.00	0.0044661
391.00	0.0043260
392.00	0.0041666
393.00	0.0038893
394.00	0.0038409
395.00	0.0036561
396.00	0.0036132
397.00	0.0034723
398.00	0.0033208
399.00	0.0032143
400.00	0.0030069
401.00	0.0029522
402.00	0.0028327
403.00	0.0026917
404.00	0.0027027
405.00	0.0025285
406.00	0.0024519
407.00	0.0024464
408.00	0.0022571
409.00	0.0022730
410.00	0.0021569
411.00	0.0021742
412.00	0.0020820
413.00	0.0019810
414.00	0.0019962
415.00	0.0018485
416.00	0.0018674
417.00	0.0018287
418.00	0.0017408
419.00	0.0017534
420.00	0.0016558
421.00	0.0016027
422.00	0.0016596
423.00	0.0016225
424.00	0.0015914
425.00	0.0015809
426.00	0.0015211
427.00	0.0014508
428.00	0.0015367
429.00	0.0014218
430.00	0.0013377
431.00	0.0013869
432.00	0.0012787
433.00	0.0012855
434.00	0.0013259
435.00	0.0012699
436.00	0.0011954
437.00	0.0011904
438.00	0.0011332
439.00	0.0011218
440.00	0.0011365
441.00	0.0010978
442.00	0.0010532
443.00	0.0010860
444.00	0.0011033
445.00	0.00099935
446.00	0.0010629
447.00	0.00099346
448.00	0.00093665
449.00	0.00093034
450.00	0.00099430
451.00	0.00091309
452.00	0.00094717
453.00	0.00090173
454.00	0.00079822
455.00	0.00084072
456.00	0.00085755
457.00	0.00078854
458.00	0.00073300
459.00	0.00083861
460.00	0.00072079
461.00	0.00075109
462.00	0.00075488
463.00	0.00068882
464.00	0.00070859
465.00	0.00077339
466.00	0.00075698
467.00	0.00061644
468.00	0.00058025
469.00	0.00062949
470.00	0.00063916
471.00	0.00058867
472.00	0.00052050
473.00	0.00056426
474.00	0.00062991
475.00	0.00056384
476.00	0.00054996
477.00	0.00058404
478.00	0.00055922
479.00	0.00052471
480.00	0.00050493
481.00	0.00050241
482.00	0.00048432
483.00	0.00042162
484.00	0.00043635
485.00	0.00046202
486.00	0.00050493
487.00	0.00048726
488.00	0.00041573
489.00	0.00030044
490.00	0.00044518
491.00	0.00038712
492.00	0.00035766
493.00	0.00037660
494.00	0.00038838
495.00	0.00038543
496.00	0.00036103
497.00	0.00034841
498.00	0.00035556
499.00	0.00037702
500.00	0.00033326
