Wavelength (nm)	P07 abs N
300.00	0.059220
300.50	0.057051
301.00	0.055102
301.50	0.052874
302.00	0.051204
302.50	0.049795
303.00	0.048376
303.50	0.047286
304.00	0.046187
304.50	0.045057
305.00	0.044418
305.50	0.044018
306.00	0.043408
306.50	0.043088
307.00	0.042819
307.50	0.042459
308.00	0.042289
308.50	0.042419
309.00	0.042549
309.50	0.042109
310.00	0.041979
310.50	0.042039
311.00	0.042239
311.50	0.042299
312.00	0.042359
312.50	0.042699
313.00	0.042669
313.50	0.043178
314.00	0.043248
314.50	0.043528
315.00	0.043728
315.50	0.044268
316.00	0.044408
316.50	0.045187
317.00	0.045257
317.50	0.045707
318.00	0.046387
318.50	0.046847
319.00	0.047086
319.50	0.047456
320.00	0.047976
320.50	0.048496
321.00	0.049165
321.50	0.049645
322.00	0.049955
322.50	0.050375
323.00	0.051034
323.50	0.051614
324.00	0.052394
324.50	0.052804
325.00	0.053023
325.50	0.053983
326.00	0.054373
326.50	0.055152
327.00	0.055522
327.50	0.056212
328.00	0.056772
328.50	0.057371
329.00	0.058311
329.50	0.058821
330.00	0.059240
330.50	0.059940
331.00	0.060390
331.50	0.060980
332.00	0.061709
332.50	0.062229
333.00	0.062759
333.50	0.063398
334.00	0.063918
334.50	0.064598
335.00	0.064908
335.50	0.065317
336.00	0.065917
336.50	0.066107
337.00	0.066877
337.50	0.067196
338.00	0.067626
338.50	0.067986
339.00	0.068306
339.50	0.068436
340.00	0.068776
340.50	0.069285
341.00	0.069055
341.50	0.069525
342.00	0.069465
342.50	0.069485
343.00	0.069755
343.50	0.069995
344.00	0.070145
344.50	0.070245
345.00	0.069765
345.50	0.070435
346.00	0.070445
346.50	0.070525
347.00	0.070215
347.50	0.070445
348.00	0.070505
348.50	0.070295
349.00	0.070485
349.50	0.070725
350.00	0.070545
350.50	0.070495
351.00	0.070735
351.50	0.070175
352.00	0.070395
352.50	0.069685
353.00	0.069425
353.50	0.068965
354.00	0.068676
354.50	0.068786
355.00	0.068386
355.50	0.067656
356.00	0.067336
356.50	0.066737
357.00	0.066317
357.50	0.065597
358.00	0.064658
358.50	0.064078
359.00	0.063578
359.50	0.062559
360.00	0.061909
360.50	0.061279
361.00	0.061049
361.50	0.059860
362.00	0.059140
362.50	0.058441
363.00	0.057651
363.50	0.056822
364.00	0.055882
364.50	0.055252
365.00	0.054343
365.50	0.053363
366.00	0.052524
366.50	0.051854
367.00	0.051104
367.50	0.050195
368.00	0.049515
368.50	0.048896
369.00	0.048506
369.50	0.047536
370.00	0.046947
370.50	0.046167
371.00	0.045737
371.50	0.045287
372.00	0.044798
372.50	0.044328
373.00	0.043708
373.50	0.043238
374.00	0.042579
374.50	0.042309
375.00	0.041769
375.50	0.041229
376.00	0.040600
376.50	0.040160
377.00	0.039710
377.50	0.039150
378.00	0.038471
378.50	0.038081
379.00	0.037501
379.50	0.036862
380.00	0.036392
380.50	0.035622
381.00	0.035032
381.50	0.034443
382.00	0.033813
382.50	0.032874
383.00	0.032274
383.50	0.031504
384.00	0.030905
384.50	0.030125
385.00	0.029415
385.50	0.028776
386.00	0.028026
386.50	0.027226
387.00	0.026547
387.50	0.025797
388.00	0.025017
388.50	0.024368
389.00	0.023658
389.50	0.022849
390.00	0.022199
390.50	0.021549
391.00	0.020950
391.50	0.020290
392.00	0.019680
392.50	0.019130
393.00	0.018541
393.50	0.018091
394.00	0.017631
394.50	0.017101
395.00	0.016682
395.50	0.016212
396.00	0.015942
396.50	0.015512
397.00	0.015202
397.50	0.014943
398.00	0.014723
398.50	0.014433
399.00	0.014323
399.50	0.014043
400.00	0.014023
400.50	0.013873
401.00	0.013823
401.50	0.013853
402.00	0.013703
402.50	0.013783
403.00	0.013773
403.50	0.013913
404.00	0.013953
404.50	0.014113
405.00	0.014243
405.50	0.014463
406.00	0.014563
406.50	0.014813
407.00	0.015092
407.50	0.015282
408.00	0.015592
408.50	0.015962
409.00	0.016172
409.50	0.016532
410.00	0.016912
410.50	0.017251
411.00	0.017641
411.50	0.018081
412.00	0.018461
412.50	0.018891
413.00	0.019340
413.50	0.019630
414.00	0.020190
414.50	0.020600
415.00	0.021109
415.50	0.021699
416.00	0.022329
416.50	0.022859
417.00	0.023548
417.50	0.024208
418.00	0.024838
418.50	0.025547
419.00	0.026297
419.50	0.027066
420.00	0.027866
420.50	0.028586
421.00	0.029495
421.50	0.030385
422.00	0.031384
422.50	0.032254
423.00	0.033293
423.50	0.034393
424.00	0.035492
424.50	0.036712
425.00	0.037971
425.50	0.039230
426.00	0.040630
426.50	0.041969
427.00	0.043448
427.50	0.044948
428.00	0.046527
428.50	0.048236
429.00	0.050005
429.50	0.051834
430.00	0.053683
430.50	0.055662
431.00	0.057691
431.50	0.059770
432.00	0.061969
432.50	0.064128
433.00	0.066487
433.50	0.068926
434.00	0.071364
434.50	0.073773
435.00	0.076322
435.50	0.078851
436.00	0.081499
436.50	0.084048
437.00	0.086757
437.50	0.089435
438.00	0.092184
438.50	0.094853
439.00	0.097571
439.50	0.10046
440.00	0.10315
440.50	0.10603
441.00	0.10883
441.50	0.11173
442.00	0.11461
442.50	0.11750
443.00	0.12053
443.50	0.12373
444.00	0.12703
444.50	0.13040
445.00	0.13393
445.50	0.13775
446.00	0.14174
446.50	0.14594
447.00	0.15048
447.50	0.15519
448.00	0.16030
448.50	0.16577
449.00	0.17158
449.50	0.17785
450.00	0.18449
450.50	0.19141
451.00	0.19906
451.50	0.20714
452.00	0.21535
452.50	0.22490
453.00	0.23453
453.50	0.24492
454.00	0.25575
454.50	0.26711
455.00	0.27916
455.50	0.29183
456.00	0.30488
456.50	0.31835
457.00	0.33238
457.50	0.34670
458.00	0.36123
458.50	0.37564
459.00	0.39033
459.50	0.40473
460.00	0.41869
460.50	0.43228
461.00	0.44517
461.50	0.45749
462.00	0.46873
462.50	0.47898
463.00	0.48814
463.50	0.49614
464.00	0.50300
464.50	0.50878
465.00	0.51358
465.50	0.51752
466.00	0.52056
466.50	0.52318
467.00	0.52512
467.50	0.52658
468.00	0.52790
468.50	0.52887
469.00	0.52987
469.50	0.53108
470.00	0.53222
470.50	0.53373
471.00	0.53571
471.50	0.53846
472.00	0.54210
472.50	0.54660
473.00	0.55246
473.50	0.56004
474.00	0.56897
474.50	0.57967
475.00	0.59218
475.50	0.60694
476.00	0.62340
476.50	0.64162
477.00	0.66200
477.50	0.68408
478.00	0.70732
478.50	0.73174
479.00	0.75705
479.50	0.78307
480.00	0.80845
480.50	0.83393
481.00	0.85872
481.50	0.88248
482.00	0.90440
482.50	0.92445
483.00	0.94238
483.50	0.95819
484.00	0.97165
484.50	0.98247
485.00	0.99071
485.50	0.99620
486.00	0.99940
486.50	1.0000
487.00	0.99849
487.50	0.99447
488.00	0.98800
488.50	0.97941
489.00	0.96882
489.50	0.95567
490.00	0.94043
490.50	0.92309
491.00	0.90341
491.50	0.88171
492.00	0.85792
492.50	0.83221
493.00	0.80428
493.50	0.77461
494.00	0.74369
494.50	0.71136
495.00	0.67767
495.50	0.64312
496.00	0.60821
496.50	0.57321
497.00	0.53814
497.50	0.50321
498.00	0.46934
498.50	0.43647
499.00	0.40428
499.50	0.37333
500.00	0.34412
500.50	0.31631
501.00	0.29003
501.50	0.26503
502.00	0.24189
502.50	0.22050
503.00	0.20026
503.50	0.18175
504.00	0.16462
504.50	0.14917
505.00	0.13469
505.50	0.12144
506.00	0.10959
506.50	0.098771
507.00	0.088816
507.50	0.079820
508.00	0.071674
508.50	0.064388
509.00	0.057741
509.50	0.051704
510.00	0.046377
510.50	0.041529
511.00	0.037221
511.50	0.033273
512.00	0.029845
512.50	0.026667
513.00	0.023878
513.50	0.021349
514.00	0.019060
514.50	0.017331
515.00	0.015362
515.50	0.013913
516.00	0.012444
516.50	0.011234
517.00	0.010025
517.50	0.0090255
518.00	0.0080360
518.50	0.0072264
519.00	0.0064668
519.50	0.0058471
520.00	0.0052974
520.50	0.0047376
521.00	0.0043078
521.50	0.0038281
522.00	0.0034983
522.50	0.0031484
523.00	0.0027786
523.50	0.0025487
524.00	0.0022589
524.50	0.0021489
525.00	0.0018991
525.50	0.0016692
526.00	0.0015392
526.50	0.0013973
527.00	0.0012714
527.50	0.0011594
528.00	0.00097551
528.50	0.00095152
529.00	0.00087856
529.50	0.00086357
530.00	0.00078861
530.50	0.00064967
531.00	0.00068366
531.50	0.00058561
532.00	0.00045567
532.50	0.00046987
533.00	0.00041279
533.50	0.00042679
534.00	0.00035482
534.50	0.00030185
535.00	0.00034883
535.50	0.00032284
536.00	0.00026387
536.50	0.00023988
537.00	0.00022989
537.50	0.00022589
538.00	0.00023388
538.50	0.00022789
539.00	0.00018891
539.50	0.00020190
540.00	0.00020890
540.50	0.00016492
541.00	0.00015792
541.50	0.00020690
542.00	0.00013593
542.50	0.00016292
543.00	0.00010995
543.50	0.00018791
544.00	0.00022389
544.50	0.00020090
545.00	0.00017691
545.50	0.00019890
546.00	0.00020490
546.50	0.00020690
547.00	0.00020690
547.50	0.00019990
548.00	0.00019090
548.50	0.00019190
549.00	0.00022089
549.50	0.00017691
550.00	0.00017691
