Wavelength (nm)	Q-27, H2TBP(CO2Me)Ph.ems
620.00	0.0044594
621.00	0.0047653
622.00	0.0046618
623.00	0.0049133
624.00	0.0045575
625.00	0.0046172
626.00	0.0051265
627.00	0.0050302
628.00	0.0048170
629.00	0.0053156
630.00	0.0050685
631.00	0.0054806
632.00	0.0054235
633.00	0.0057365
634.00	0.0062324
635.00	0.0066578
636.00	0.0068594
637.00	0.0074525
638.00	0.0078057
639.00	0.0088224
640.00	0.0095109
641.00	0.010194
642.00	0.010356
643.00	0.010661
644.00	0.011709
645.00	0.012958
646.00	0.013617
647.00	0.014212
648.00	0.015070
649.00	0.016053
650.00	0.016529
651.00	0.017143
652.00	0.017969
653.00	0.017863
654.00	0.019666
655.00	0.018844
656.00	0.020751
657.00	0.020782
658.00	0.021262
659.00	0.022575
660.00	0.023236
661.00	0.023694
662.00	0.023748
663.00	0.024857
664.00	0.025632
665.00	0.026329
666.00	0.027560
667.00	0.028189
668.00	0.029351
669.00	0.029557
670.00	0.029976
671.00	0.032067
672.00	0.033223
673.00	0.034030
674.00	0.035695
675.00	0.037797
676.00	0.040968
677.00	0.043410
678.00	0.045569
679.00	0.049967
680.00	0.054957
681.00	0.059051
682.00	0.063791
683.00	0.072946
684.00	0.078092
685.00	0.089584
686.00	0.10058
687.00	0.11273
688.00	0.12832
689.00	0.14345
690.00	0.16477
691.00	0.18550
692.00	0.20504
693.00	0.23271
694.00	0.25998
695.00	0.28937
696.00	0.31913
697.00	0.34901
698.00	0.38081
699.00	0.41787
700.00	0.44637
701.00	0.48187
702.00	0.51099
703.00	0.54309
704.00	0.57839
705.00	0.61040
706.00	0.64498
707.00	0.67517
708.00	0.70732
709.00	0.73647
710.00	0.76795
711.00	0.79569
712.00	0.82290
713.00	0.85217
714.00	0.86706
715.00	0.88783
716.00	0.90525
717.00	0.92345
718.00	0.93880
719.00	0.94896
720.00	0.96183
721.00	0.97484
722.00	0.98497
723.00	0.99249
724.00	1.0000
725.00	0.99156
726.00	0.99617
727.00	0.99573
728.00	0.98889
729.00	0.98972
730.00	0.98624
731.00	0.97105
732.00	0.96553
733.00	0.95650
734.00	0.94375
735.00	0.92737
736.00	0.91338
737.00	0.89996
738.00	0.87921
739.00	0.86450
740.00	0.85488
741.00	0.83302
742.00	0.81367
743.00	0.78638
744.00	0.77315
745.00	0.75681
746.00	0.73789
747.00	0.72432
748.00	0.70587
749.00	0.69461
750.00	0.67619
751.00	0.65927
752.00	0.64342
753.00	0.62413
754.00	0.61114
755.00	0.60033
756.00	0.58172
757.00	0.57423
758.00	0.56462
759.00	0.54876
760.00	0.53919
761.00	0.53106
762.00	0.51759
763.00	0.50824
764.00	0.49985
765.00	0.49165
766.00	0.49157
767.00	0.48679
768.00	0.48081
769.00	0.47768
770.00	0.47289
771.00	0.46480
772.00	0.46861
773.00	0.46281
774.00	0.45968
775.00	0.46844
776.00	0.46178
777.00	0.45851
778.00	0.45924
779.00	0.46392
780.00	0.45923
781.00	0.46872
782.00	0.47126
783.00	0.47477
784.00	0.46966
785.00	0.47631
786.00	0.48198
787.00	0.48129
788.00	0.49053
789.00	0.49780
790.00	0.49493
791.00	0.48945
792.00	0.50633
793.00	0.50417
794.00	0.50663
795.00	0.50974
796.00	0.51215
797.00	0.52167
798.00	0.52581
799.00	0.52398
800.00	0.53268
801.00	0.53299
802.00	0.52994
803.00	0.52960
804.00	0.53495
805.00	0.52035
806.00	0.53684
807.00	0.53477
808.00	0.54063
809.00	0.52721
810.00	0.53443
811.00	0.52671
812.00	0.52134
813.00	0.52275
814.00	0.52309
815.00	0.51787
816.00	0.51365
817.00	0.51256
818.00	0.49746
819.00	0.50484
820.00	0.50303
821.00	0.48255
822.00	0.47160
823.00	0.46309
824.00	0.45980
825.00	0.45078
826.00	0.44983
827.00	0.43837
828.00	0.43352
829.00	0.41560
830.00	0.41066
831.00	0.40232
832.00	0.38802
833.00	0.38829
834.00	0.36184
835.00	0.36195
836.00	0.35540
837.00	0.34247
838.00	0.33058
839.00	0.31313
840.00	0.30520
841.00	0.30552
842.00	0.27358
843.00	0.27650
844.00	0.26623
845.00	0.25551
846.00	0.25346
847.00	0.24158
848.00	0.22777
849.00	0.22192
850.00	0.20959
851.00	0.21122
852.00	0.18904
853.00	0.19048
854.00	0.18451
855.00	0.17234
856.00	0.17264
857.00	0.16371
858.00	0.15823
859.00	0.14749
860.00	0.14196
861.00	0.14101
862.00	0.13014
863.00	0.12229
864.00	0.11943
865.00	0.11552
866.00	0.11547
867.00	0.10772
868.00	0.10376
869.00	0.10217
870.00	0.093476
871.00	0.094920
872.00	0.089764
873.00	0.085938
874.00	0.085510
875.00	0.076068
876.00	0.072406
877.00	0.072106
878.00	0.069555
879.00	0.070443
880.00	0.064740
881.00	0.062533
882.00	0.064391
883.00	0.064612
884.00	0.053325
885.00	0.057154
886.00	0.055577
887.00	0.057510
888.00	0.046455
889.00	0.047346
890.00	0.046877
891.00	0.045041
892.00	0.044306
893.00	0.041769
894.00	0.045661
895.00	0.042030
896.00	0.039822
897.00	0.035453
898.00	0.038241
899.00	0.037312
900.00	0.034817
901.00	0.039714
902.00	0.036533
903.00	0.037427
904.00	0.034022
905.00	0.033544
906.00	0.032393
907.00	0.032684
908.00	0.036520
909.00	0.030086
910.00	0.025988
911.00	0.034615
912.00	0.027730
913.00	0.026267
914.00	0.025259
915.00	0.027265
916.00	0.027098
917.00	0.023310
918.00	0.024954
919.00	0.025797
920.00	0.023108
921.00	0.024901
922.00	0.024955
923.00	0.024350
924.00	0.027943
925.00	0.026846
926.00	0.023552
927.00	0.024353
928.00	0.022825
929.00	0.023763
930.00	0.018751
931.00	0.023776
932.00	0.020750
933.00	0.021162
934.00	0.019629
935.00	0.015989
936.00	0.020515
937.00	0.018464
938.00	0.019462
939.00	0.015830
940.00	0.016131
941.00	0.017990
942.00	0.019690
943.00	0.017222
944.00	0.018774
945.00	0.013414
946.00	0.015938
947.00	0.016007
948.00	0.011405
949.00	0.015227
950.00	0.012033
951.00	0.017200
952.00	0.013185
953.00	0.011810
954.00	0.011560
955.00	0.013122
956.00	0.013081
957.00	0.014711
958.00	0.012899
959.00	0.014917
960.00	0.012759
961.00	0.0096447
962.00	0.0096786
963.00	0.010114
964.00	0.012109
965.00	0.011987
966.00	0.011357
967.00	0.0099150
968.00	0.0086663
969.00	0.011783
970.00	0.0072902
971.00	0.0094878
972.00	0.011140
973.00	0.0059104
974.00	0.011320
975.00	0.0070663
976.00	0.011352
977.00	0.0078574
978.00	0.0060612
979.00	0.0057740
980.00	0.0052531
981.00	0.0063394
982.00	0.010029
983.00	0.011692
984.00	0.0062048
985.00	0.0071091
986.00	0.0026970
987.00	0.0076951
988.00	0.0090035
989.00	0.010107
990.00	0.0058837
991.00	0.0042373
992.00	0.0050150
993.00	0.0063867
994.00	0.0017311
995.00	0.0033606
996.00	0.0066971
997.00	0.0061602
998.00	0.0062065
999.00	0.0046181
1000.0	0.0096438
