Wavelength (nm)	Q-29, PdTBP(CO2Me)Ph.ems
700.00	0.00059872
701.00	0.00059872
702.00	0.00074055
703.00	0.00084305
704.00	0.00083384
705.00	0.00065658
706.00	0.00077398
707.00	0.00083529
708.00	0.0010374
709.00	0.00095511
710.00	0.00099849
711.00	0.00067810
712.00	0.00041287
713.00	0.00042669
714.00	0.00071423
715.00	0.00040431
716.00	0.00052915
717.00	0.00010054
718.00	0.00045975
719.00	7.0703e-05
720.00	0.00013759
721.00	9.7379e-05
722.00	0.00058255
723.00	0.00018745
724.00	0.00049128
725.00	0.00049952
726.00	2.1559e-05
727.00	0.00021204
728.00	0.00026659
729.00	0.00019128
730.00	0.00070992
731.00	0.00081243
732.00	0.0010471
733.00	0.0010775
734.00	0.0018540
735.00	0.0014575
736.00	0.0020000
737.00	0.0020570
738.00	0.0016846
739.00	0.0023032
740.00	0.0025901
741.00	0.0026948
742.00	0.0032613
743.00	0.0033464
744.00	0.0043586
745.00	0.0050854
746.00	0.0057021
747.00	0.0064096
748.00	0.0071658
749.00	0.0082068
750.00	0.0098348
751.00	0.010963
752.00	0.011859
753.00	0.013030
754.00	0.014479
755.00	0.016708
756.00	0.018880
757.00	0.020379
758.00	0.022582
759.00	0.025575
760.00	0.030256
761.00	0.031715
762.00	0.036925
763.00	0.038895
764.00	0.043968
765.00	0.047783
766.00	0.055518
767.00	0.062187
768.00	0.068517
769.00	0.074265
770.00	0.085009
771.00	0.093332
772.00	0.099320
773.00	0.11163
774.00	0.12393
775.00	0.13406
776.00	0.15113
777.00	0.16640
778.00	0.17878
779.00	0.20162
780.00	0.21400
781.00	0.23495
782.00	0.25516
783.00	0.27560
784.00	0.30827
785.00	0.32723
786.00	0.36144
787.00	0.38407
788.00	0.42076
789.00	0.45202
790.00	0.48295
791.00	0.51659
792.00	0.54551
793.00	0.57683
794.00	0.62032
795.00	0.64638
796.00	0.69124
797.00	0.71129
798.00	0.74436
799.00	0.76859
800.00	0.80480
801.00	0.82554
802.00	0.85785
803.00	0.86751
804.00	0.88700
805.00	0.90573
806.00	0.92652
807.00	0.94326
808.00	0.95697
809.00	0.96220
810.00	0.97519
811.00	0.97151
812.00	0.98483
813.00	1.0000
814.00	0.98193
815.00	0.98213
816.00	0.98112
817.00	0.96971
818.00	0.95562
819.00	0.94316
820.00	0.94753
821.00	0.93822
822.00	0.92044
823.00	0.90359
824.00	0.89788
825.00	0.87493
826.00	0.85367
827.00	0.82715
828.00	0.81980
829.00	0.78665
830.00	0.77871
831.00	0.75936
832.00	0.74357
833.00	0.71264
834.00	0.69619
835.00	0.67968
836.00	0.65100
837.00	0.63344
838.00	0.61638
839.00	0.60143
840.00	0.58260
841.00	0.56028
842.00	0.54324
843.00	0.52380
844.00	0.51320
845.00	0.49607
846.00	0.47398
847.00	0.46926
848.00	0.45233
849.00	0.43698
850.00	0.40835
851.00	0.41048
852.00	0.39096
853.00	0.37440
854.00	0.37401
855.00	0.36197
856.00	0.34777
857.00	0.34260
858.00	0.33061
859.00	0.32266
860.00	0.30193
861.00	0.29467
862.00	0.28964
863.00	0.28301
864.00	0.26903
865.00	0.25637
866.00	0.25988
867.00	0.25713
868.00	0.25106
869.00	0.23988
870.00	0.23773
871.00	0.22848
872.00	0.21790
873.00	0.21767
874.00	0.20881
875.00	0.20222
876.00	0.20788
877.00	0.19641
878.00	0.19247
879.00	0.19164
880.00	0.18557
881.00	0.18114
882.00	0.17762
883.00	0.17604
884.00	0.17170
885.00	0.16885
886.00	0.16206
887.00	0.16571
888.00	0.15868
889.00	0.15036
890.00	0.15379
891.00	0.15689
892.00	0.15082
893.00	0.14974
894.00	0.14673
895.00	0.14606
896.00	0.14675
897.00	0.14684
898.00	0.12958
899.00	0.13859
900.00	0.13649
901.00	0.13755
902.00	0.13274
903.00	0.14048
904.00	0.13137
905.00	0.13325
906.00	0.13315
907.00	0.13991
908.00	0.13077
909.00	0.13068
910.00	0.12439
911.00	0.12261
912.00	0.12072
913.00	0.12583
914.00	0.12110
915.00	0.11703
916.00	0.11703
917.00	0.11676
918.00	0.10970
919.00	0.11195
920.00	0.10893
921.00	0.11110
922.00	0.10783
923.00	0.10774
924.00	0.10628
925.00	0.10999
926.00	0.10318
927.00	0.10453
928.00	0.10228
929.00	0.097746
930.00	0.093742
931.00	0.090853
932.00	0.094313
933.00	0.087010
934.00	0.096367
935.00	0.092407
936.00	0.091979
937.00	0.086745
938.00	0.086741
939.00	0.084125
940.00	0.080197
941.00	0.081247
942.00	0.077073
943.00	0.073087
944.00	0.069158
945.00	0.079485
946.00	0.068309
947.00	0.068351
948.00	0.068426
949.00	0.064238
950.00	0.057979
951.00	0.061258
952.00	0.055725
953.00	0.055985
954.00	0.050074
955.00	0.051318
956.00	0.047391
957.00	0.046463
958.00	0.044097
959.00	0.046835
960.00	0.048971
961.00	0.045260
962.00	0.043689
963.00	0.042093
964.00	0.038269
965.00	0.029182
966.00	0.032937
967.00	0.025915
968.00	0.031346
969.00	0.030630
970.00	0.027416
971.00	0.031024
972.00	0.027092
973.00	0.027074
974.00	0.028633
975.00	0.014495
976.00	0.019694
977.00	0.0099679
978.00	0.018521
979.00	0.019721
980.00	0.0068066
981.00	0.024439
982.00	0.016835
983.00	0.013335
984.00	0.0085601
985.00	0.016173
986.00	0.012404
987.00	0.014235
988.00	0.010401
989.00	0.017589
990.00	0.018370
991.00	0.024548
992.00	0.0053811
993.00	0.018493
994.00	0.021582
995.00	0.0059188
996.00	0.026844
997.00	0.019302
998.00	0.017908
999.00	0.0058946
1000.0	0.0034509
