Wavelength (nm)	R06 abs N
300.00	0.33552
300.25	0.33441
300.50	0.33298
300.75	0.33436
301.00	0.33625
301.25	0.33824
301.50	0.33726
301.75	0.33840
302.00	0.33827
302.25	0.33640
302.50	0.33712
302.75	0.33801
303.00	0.33708
303.25	0.33707
303.50	0.33687
303.75	0.33788
304.00	0.34090
304.25	0.34132
304.50	0.34186
304.75	0.34221
305.00	0.33894
305.25	0.33918
305.50	0.34009
305.75	0.33884
306.00	0.33919
306.25	0.33913
306.50	0.33777
306.75	0.34028
307.00	0.33890
307.25	0.33828
307.50	0.33704
307.75	0.33714
308.00	0.33570
308.25	0.33370
308.50	0.33134
308.75	0.32954
309.00	0.32811
309.25	0.32614
309.50	0.32665
309.75	0.32819
310.00	0.32448
310.25	0.32041
310.50	0.31364
310.75	0.31529
311.00	0.30760
311.25	0.31339
311.50	0.30946
311.75	0.30934
312.00	0.30441
312.25	0.29955
312.50	0.29926
312.75	0.29678
313.00	0.29294
313.25	0.29272
313.50	0.28992
313.75	0.28595
314.00	0.29343
314.25	0.28168
314.50	0.28442
314.75	0.27816
315.00	0.28002
315.25	0.28757
315.50	0.27754
315.75	0.28128
316.00	0.27805
316.25	0.27840
316.50	0.27477
316.75	0.27412
317.00	0.27571
317.25	0.28006
317.50	0.28047
317.75	0.28509
318.00	0.27964
318.25	0.27919
318.50	0.28143
318.75	0.27930
319.00	0.28133
319.25	0.27938
319.50	0.28762
319.75	0.28078
320.00	0.28407
320.25	0.28608
320.50	0.28531
320.75	0.28713
321.00	0.28635
321.25	0.28473
321.50	0.29176
321.75	0.28143
322.00	0.28772
322.25	0.28815
322.50	0.28422
322.75	0.29120
323.00	0.28438
323.25	0.28855
323.50	0.29031
323.75	0.28604
324.00	0.28342
324.25	0.28569
324.50	0.28040
324.75	0.27834
325.00	0.28084
325.25	0.27910
325.50	0.27576
325.75	0.28162
326.00	0.26970
326.25	0.27902
326.50	0.26985
326.75	0.27168
327.00	0.26795
327.25	0.26688
327.50	0.26659
327.75	0.25980
328.00	0.26072
328.25	0.25302
328.50	0.25849
328.75	0.25688
329.00	0.25553
329.25	0.25788
329.50	0.25414
329.75	0.24899
330.00	0.25344
330.25	0.25284
330.50	0.25564
330.75	0.25257
331.00	0.25374
331.25	0.25475
331.50	0.25496
331.75	0.25239
332.00	0.25529
332.25	0.25650
332.50	0.25666
332.75	0.25753
333.00	0.26520
333.25	0.26344
333.50	0.26731
333.75	0.26893
334.00	0.27027
334.25	0.27242
334.50	0.27306
334.75	0.27533
335.00	0.27299
335.25	0.28002
335.50	0.27768
335.75	0.29252
336.00	0.29083
336.25	0.29156
336.50	0.29601
336.75	0.30228
337.00	0.30440
337.25	0.31361
337.50	0.31569
337.75	0.32152
338.00	0.32902
338.25	0.33122
338.50	0.33932
338.75	0.34081
339.00	0.34238
339.25	0.35084
339.50	0.35993
339.75	0.36389
340.00	0.36810
340.25	0.37701
340.50	0.38010
340.75	0.38708
341.00	0.39702
341.25	0.40038
341.50	0.40497
341.75	0.40631
342.00	0.41174
342.25	0.41796
342.50	0.42183
342.75	0.43234
343.00	0.43758
343.25	0.43869
343.50	0.44314
343.75	0.44873
344.00	0.45336
344.25	0.46053
344.50	0.46297
344.75	0.46836
345.00	0.47611
345.25	0.48031
345.50	0.48445
345.75	0.48620
346.00	0.49132
346.25	0.49663
346.50	0.50435
346.75	0.50269
347.00	0.51186
347.25	0.51529
347.50	0.52041
347.75	0.52575
348.00	0.53437
348.25	0.53852
348.50	0.54318
348.75	0.55193
349.00	0.55797
349.25	0.56117
349.50	0.57229
349.75	0.57770
350.00	0.58145
350.25	0.59363
350.50	0.60037
350.75	0.60814
351.00	0.61407
351.25	0.62449
351.50	0.63758
351.75	0.64499
352.00	0.65274
352.25	0.66368
352.50	0.67500
352.75	0.68796
353.00	0.69863
353.25	0.70459
353.50	0.72320
353.75	0.72721
354.00	0.74107
354.25	0.75992
354.50	0.76468
354.75	0.77867
355.00	0.79186
355.25	0.80798
355.50	0.82047
355.75	0.84219
356.00	0.85177
356.25	0.87232
356.50	0.87925
356.75	0.89343
357.00	0.89524
357.25	0.91340
357.50	0.92212
357.75	0.92856
358.00	0.93662
358.25	0.95236
358.50	0.95370
358.75	0.96371
359.00	0.97348
359.25	0.97988
359.50	0.98155
359.75	0.98134
360.00	0.99240
360.25	0.99445
360.50	0.98576
360.75	0.99908
361.00	1.0000
361.25	0.99816
361.50	0.99680
361.75	0.99746
362.00	0.99971
362.25	0.99145
362.50	0.98563
362.75	0.98253
363.00	0.97232
363.25	0.96680
363.50	0.96357
363.75	0.95244
364.00	0.94138
364.25	0.93898
364.50	0.93075
364.75	0.91519
365.00	0.90388
365.25	0.89361
365.50	0.88211
365.75	0.87196
366.00	0.85738
366.25	0.84503
366.50	0.83707
366.75	0.82109
367.00	0.80862
367.25	0.79930
367.50	0.78248
367.75	0.77209
368.00	0.75627
368.25	0.74142
368.50	0.72497
368.75	0.71293
369.00	0.69940
369.25	0.69364
369.50	0.67911
369.75	0.66442
370.00	0.64985
370.25	0.63720
370.50	0.62503
370.75	0.60710
371.00	0.59523
371.25	0.58536
371.50	0.57080
371.75	0.56566
372.00	0.55568
372.25	0.53892
372.50	0.52703
372.75	0.52003
373.00	0.50694
373.25	0.49876
373.50	0.48794
373.75	0.47707
374.00	0.47164
374.25	0.46143
374.50	0.45568
374.75	0.45054
375.00	0.44685
375.25	0.43795
375.50	0.42865
375.75	0.42102
376.00	0.40626
376.25	0.39229
376.50	0.38035
376.75	0.37219
377.00	0.36696
377.25	0.36027
377.50	0.34723
377.75	0.34012
378.00	0.33574
378.25	0.32608
378.50	0.31982
378.75	0.31251
379.00	0.30518
379.25	0.29830
379.50	0.28839
379.75	0.28615
380.00	0.27900
380.25	0.27804
380.50	0.26674
380.75	0.26268
381.00	0.25658
381.25	0.25263
381.50	0.24434
381.75	0.24026
382.00	0.23762
382.25	0.23123
382.50	0.22759
382.75	0.22139
383.00	0.22047
383.25	0.21422
383.50	0.20982
383.75	0.20614
384.00	0.20202
384.25	0.19999
384.50	0.19664
384.75	0.19398
385.00	0.18920
385.25	0.18409
385.50	0.18425
385.75	0.18202
386.00	0.17821
386.25	0.17514
386.50	0.17250
386.75	0.17193
387.00	0.16809
387.25	0.16617
387.50	0.16554
387.75	0.16102
388.00	0.16179
388.25	0.15616
388.50	0.15674
388.75	0.15611
389.00	0.15306
389.25	0.15337
389.50	0.15432
389.75	0.15154
390.00	0.14890
390.25	0.14613
390.50	0.14736
390.75	0.14711
391.00	0.14204
391.25	0.14228
391.50	0.14058
391.75	0.14199
392.00	0.13960
392.25	0.14217
392.50	0.13746
392.75	0.13740
393.00	0.13806
393.25	0.13461
393.50	0.13805
393.75	0.13722
394.00	0.13813
394.25	0.13465
394.50	0.13560
394.75	0.13599
395.00	0.13567
395.25	0.13440
395.50	0.13435
395.75	0.13349
396.00	0.13290
396.25	0.13553
396.50	0.13268
396.75	0.13309
397.00	0.13359
397.25	0.13457
397.50	0.13420
397.75	0.13222
398.00	0.13378
398.25	0.13099
398.50	0.13133
398.75	0.13091
399.00	0.12986
399.25	0.13184
399.50	0.13506
399.75	0.13053
400.00	0.13403
400.25	0.13432
400.50	0.13297
400.75	0.13246
401.00	0.13200
401.25	0.13319
401.50	0.13051
401.75	0.13264
402.00	0.13417
402.25	0.13296
402.50	0.13171
402.75	0.13166
403.00	0.13355
403.25	0.13416
403.50	0.13235
403.75	0.13328
404.00	0.13107
404.25	0.13195
404.50	0.13213
404.75	0.13517
405.00	0.13244
405.25	0.13453
405.50	0.13215
405.75	0.13467
406.00	0.13288
406.25	0.13595
406.50	0.13302
406.75	0.13376
407.00	0.13231
407.25	0.13247
407.50	0.13550
407.75	0.13216
408.00	0.13408
408.25	0.13616
408.50	0.13471
408.75	0.13523
409.00	0.13269
409.25	0.13099
409.50	0.13340
409.75	0.13267
410.00	0.13396
410.25	0.13398
410.50	0.13243
410.75	0.13289
411.00	0.13107
411.25	0.13200
411.50	0.13142
411.75	0.13099
412.00	0.13102
412.25	0.13218
412.50	0.13106
412.75	0.13086
413.00	0.13033
413.25	0.13103
413.50	0.12859
413.75	0.12914
414.00	0.12999
414.25	0.12973
414.50	0.12735
414.75	0.12832
415.00	0.13009
415.25	0.12942
415.50	0.12661
415.75	0.12714
416.00	0.12813
416.25	0.12444
416.50	0.12671
416.75	0.12514
417.00	0.12507
417.25	0.12455
417.50	0.12557
417.75	0.12234
418.00	0.12173
418.25	0.12271
418.50	0.12161
418.75	0.12124
419.00	0.12094
419.25	0.11991
419.50	0.12056
419.75	0.11973
420.00	0.12016
420.25	0.11865
420.50	0.12037
420.75	0.11940
421.00	0.11959
421.25	0.11621
421.50	0.11759
421.75	0.11836
422.00	0.11613
422.25	0.11664
422.50	0.11387
422.75	0.11628
423.00	0.11570
423.25	0.11493
423.50	0.11510
423.75	0.11493
424.00	0.11557
424.25	0.11507
424.50	0.11453
424.75	0.11353
425.00	0.11265
425.25	0.11440
425.50	0.11353
425.75	0.11404
426.00	0.11189
426.25	0.11120
426.50	0.11336
426.75	0.11307
427.00	0.11039
427.25	0.11258
427.50	0.10976
427.75	0.11126
428.00	0.11184
428.25	0.11188
428.50	0.11296
428.75	0.11136
429.00	0.10988
429.25	0.11148
429.50	0.11233
429.75	0.11008
430.00	0.10973
430.25	0.11024
430.50	0.10924
430.75	0.10995
431.00	0.10953
431.25	0.11010
431.50	0.10953
431.75	0.10900
432.00	0.10828
432.25	0.11039
432.50	0.11049
432.75	0.10977
433.00	0.10941
433.25	0.10953
433.50	0.10888
433.75	0.10776
434.00	0.10948
434.25	0.11054
434.50	0.10880
434.75	0.10957
435.00	0.11026
435.25	0.11056
435.50	0.10986
435.75	0.10800
436.00	0.11090
436.25	0.11006
436.50	0.10796
436.75	0.10913
437.00	0.10969
437.25	0.10860
437.50	0.11117
437.75	0.11072
438.00	0.11113
438.25	0.11012
438.50	0.11059
438.75	0.10919
439.00	0.11134
439.25	0.11058
439.50	0.11143
439.75	0.10946
440.00	0.11052
440.25	0.11162
440.50	0.11179
440.75	0.11099
441.00	0.11051
441.25	0.11111
441.50	0.11012
441.75	0.11094
442.00	0.11009
442.25	0.11136
442.50	0.11199
442.75	0.11193
443.00	0.11198
443.25	0.11229
443.50	0.11410
443.75	0.11212
444.00	0.11349
444.25	0.11258
444.50	0.11192
444.75	0.11608
445.00	0.11310
445.25	0.11423
445.50	0.11414
445.75	0.11275
446.00	0.11477
446.25	0.11543
446.50	0.11500
446.75	0.11434
447.00	0.11597
447.25	0.11664
447.50	0.11707
447.75	0.11684
448.00	0.11656
448.25	0.11692
448.50	0.11653
448.75	0.11773
449.00	0.11721
449.25	0.11832
449.50	0.11996
449.75	0.11765
450.00	0.11781
450.25	0.11933
450.50	0.11958
450.75	0.12059
451.00	0.12153
451.25	0.12053
451.50	0.12252
451.75	0.12278
452.00	0.12197
452.25	0.12040
452.50	0.11957
452.75	0.12232
453.00	0.12332
453.25	0.12324
453.50	0.12261
453.75	0.12344
454.00	0.12267
454.25	0.12429
454.50	0.12314
454.75	0.12372
455.00	0.12208
455.25	0.12459
455.50	0.12416
455.75	0.12641
456.00	0.12461
456.25	0.12556
456.50	0.12816
456.75	0.12795
457.00	0.12768
457.25	0.12606
457.50	0.12817
457.75	0.12836
458.00	0.12774
458.25	0.13032
458.50	0.12952
458.75	0.12979
459.00	0.13100
459.25	0.13185
459.50	0.13125
459.75	0.13167
460.00	0.13198
460.25	0.13099
460.50	0.13354
460.75	0.13279
461.00	0.13338
461.25	0.13235
461.50	0.13447
461.75	0.13504
462.00	0.13432
462.25	0.13751
462.50	0.13491
462.75	0.13665
463.00	0.13599
463.25	0.13758
463.50	0.13724
463.75	0.13875
464.00	0.13957
464.25	0.13935
464.50	0.14095
464.75	0.13972
465.00	0.14036
465.25	0.13996
465.50	0.14364
465.75	0.14215
466.00	0.14362
466.25	0.14399
466.50	0.14275
466.75	0.14322
467.00	0.14534
467.25	0.14611
467.50	0.14697
467.75	0.14687
468.00	0.14771
468.25	0.14773
468.50	0.14962
468.75	0.14977
469.00	0.14901
469.25	0.14999
469.50	0.15079
469.75	0.15248
470.00	0.14989
470.25	0.15111
470.50	0.15315
470.75	0.15398
471.00	0.15409
471.25	0.15476
471.50	0.15618
471.75	0.15613
472.00	0.15791
472.25	0.15646
472.50	0.15675
472.75	0.15933
473.00	0.16070
473.25	0.15985
473.50	0.15934
473.75	0.16290
474.00	0.16298
474.25	0.16177
474.50	0.16386
474.75	0.16397
475.00	0.16384
475.25	0.16491
475.50	0.16711
475.75	0.16433
476.00	0.16629
476.25	0.16795
476.50	0.16685
476.75	0.16925
477.00	0.16942
477.25	0.17113
477.50	0.17003
477.75	0.17023
478.00	0.17094
478.25	0.17117
478.50	0.17171
478.75	0.17230
479.00	0.17282
479.25	0.17479
479.50	0.17521
479.75	0.17557
480.00	0.17692
480.25	0.17684
480.50	0.17597
480.75	0.17711
481.00	0.17802
481.25	0.17686
481.50	0.17868
481.75	0.18011
482.00	0.18218
482.25	0.18084
482.50	0.18259
482.75	0.18176
483.00	0.18287
483.25	0.18171
483.50	0.18183
483.75	0.18438
484.00	0.18247
484.25	0.18385
484.50	0.18457
484.75	0.18460
485.00	0.18620
485.25	0.18576
485.50	0.18579
485.75	0.18664
486.00	0.18809
486.25	0.18868
486.50	0.18879
486.75	0.18926
487.00	0.18978
487.25	0.18974
487.50	0.18986
487.75	0.18978
488.00	0.19167
488.25	0.19102
488.50	0.19160
488.75	0.19253
489.00	0.19032
489.25	0.19199
489.50	0.19313
489.75	0.19622
490.00	0.19463
490.25	0.19568
490.50	0.19481
490.75	0.19700
491.00	0.19606
491.25	0.19728
491.50	0.19747
491.75	0.20012
492.00	0.20055
492.25	0.19932
492.50	0.20252
492.75	0.20227
493.00	0.20245
493.25	0.20335
493.50	0.20235
493.75	0.20398
494.00	0.20394
494.25	0.20518
494.50	0.20465
494.75	0.20480
495.00	0.20712
495.25	0.20794
495.50	0.20738
495.75	0.20938
496.00	0.20956
496.25	0.20929
496.50	0.20955
496.75	0.21110
497.00	0.21160
497.25	0.21299
497.50	0.21308
497.75	0.21491
498.00	0.21512
498.25	0.21628
498.50	0.21621
498.75	0.21617
499.00	0.21921
499.25	0.21927
499.50	0.22084
499.75	0.22225
500.00	0.22393
500.25	0.22437
500.50	0.22702
500.75	0.22655
501.00	0.22685
501.25	0.22861
501.50	0.22844
501.75	0.23092
502.00	0.22971
502.25	0.23284
502.50	0.23397
502.75	0.23444
503.00	0.23433
503.25	0.23467
503.50	0.23944
503.75	0.23952
504.00	0.24180
504.25	0.23999
504.50	0.24005
504.75	0.24120
505.00	0.24411
505.25	0.24382
505.50	0.24260
505.75	0.24925
506.00	0.24680
506.25	0.25102
506.50	0.24866
506.75	0.24828
507.00	0.25221
507.25	0.25383
507.50	0.25447
507.75	0.25299
508.00	0.25598
508.25	0.25761
508.50	0.25601
508.75	0.25835
509.00	0.25968
509.25	0.26272
509.50	0.26082
509.75	0.26236
510.00	0.26152
510.25	0.26546
510.50	0.26523
510.75	0.26543
511.00	0.26682
511.25	0.26797
511.50	0.26870
511.75	0.26808
512.00	0.27038
512.25	0.27075
512.50	0.27113
512.75	0.27087
513.00	0.27294
513.25	0.27376
513.50	0.27168
513.75	0.27477
514.00	0.27475
514.25	0.27396
514.50	0.27643
514.75	0.27638
515.00	0.27676
515.25	0.27786
515.50	0.27734
515.75	0.27888
516.00	0.27873
516.25	0.27667
516.50	0.27766
516.75	0.27893
517.00	0.27960
517.25	0.27914
517.50	0.28132
517.75	0.27991
518.00	0.27877
518.25	0.28010
518.50	0.27972
518.75	0.28022
519.00	0.27839
519.25	0.28093
519.50	0.28041
519.75	0.28309
520.00	0.28123
520.25	0.28138
520.50	0.28158
520.75	0.28006
521.00	0.28145
521.25	0.27920
521.50	0.27964
521.75	0.28066
522.00	0.27908
522.25	0.28049
522.50	0.28011
522.75	0.27920
523.00	0.28101
523.25	0.28097
523.50	0.27847
523.75	0.27964
524.00	0.27971
524.25	0.27793
524.50	0.27864
524.75	0.27871
525.00	0.27975
525.25	0.27890
525.50	0.27792
525.75	0.27945
526.00	0.28000
526.25	0.27863
526.50	0.27840
526.75	0.27874
527.00	0.27741
527.25	0.27834
527.50	0.28016
527.75	0.27870
528.00	0.27976
528.25	0.28001
528.50	0.28034
528.75	0.27897
529.00	0.27835
529.25	0.27864
529.50	0.28103
529.75	0.28071
530.00	0.27838
530.25	0.28129
530.50	0.27964
530.75	0.28066
531.00	0.27694
531.25	0.28043
531.50	0.27899
531.75	0.28080
532.00	0.28012
532.25	0.27969
532.50	0.28103
532.75	0.28141
533.00	0.28052
533.25	0.28200
533.50	0.27928
533.75	0.28223
534.00	0.28144
534.25	0.28262
534.50	0.28213
534.75	0.28510
535.00	0.28228
535.25	0.28191
535.50	0.28450
535.75	0.28418
536.00	0.28694
536.25	0.28421
536.50	0.28770
536.75	0.28668
537.00	0.28801
537.25	0.28568
537.50	0.28819
537.75	0.28838
538.00	0.29029
538.25	0.29006
538.50	0.29106
538.75	0.29181
539.00	0.29175
539.25	0.29280
539.50	0.29486
539.75	0.29162
540.00	0.29445
540.25	0.29590
540.50	0.29816
540.75	0.29682
541.00	0.29913
541.25	0.29847
541.50	0.29968
541.75	0.30157
542.00	0.29824
542.25	0.30039
542.50	0.30152
542.75	0.30395
543.00	0.30279
543.25	0.30486
543.50	0.30561
543.75	0.30674
544.00	0.30782
544.25	0.30730
544.50	0.30714
544.75	0.30929
545.00	0.30820
545.25	0.31163
545.50	0.31024
545.75	0.31169
546.00	0.31318
546.25	0.31267
546.50	0.31149
546.75	0.31136
547.00	0.31448
547.25	0.31275
547.50	0.31293
547.75	0.31537
548.00	0.31518
548.25	0.31549
548.50	0.31597
548.75	0.31694
549.00	0.31486
549.25	0.31518
549.50	0.31757
549.75	0.31891
550.00	0.31780
550.25	0.31609
550.50	0.31747
550.75	0.31529
551.00	0.31494
551.25	0.31445
551.50	0.31541
551.75	0.31579
552.00	0.31580
552.25	0.31398
552.50	0.31526
552.75	0.31490
553.00	0.31242
553.25	0.31109
553.50	0.30911
553.75	0.31260
554.00	0.31222
554.25	0.30843
554.50	0.30929
554.75	0.30834
555.00	0.30737
555.25	0.30528
555.50	0.30349
555.75	0.30398
556.00	0.30369
556.25	0.30121
556.50	0.30012
556.75	0.29824
557.00	0.29580
557.25	0.29455
557.50	0.29416
557.75	0.28917
558.00	0.29302
558.25	0.28805
558.50	0.28878
558.75	0.28608
559.00	0.28275
559.25	0.28511
559.50	0.27845
559.75	0.28023
560.00	0.27600
560.25	0.27817
560.50	0.27420
560.75	0.27273
561.00	0.27105
561.25	0.26509
561.50	0.26750
561.75	0.26496
562.00	0.26089
562.25	0.25891
562.50	0.26049
562.75	0.25784
563.00	0.25489
563.25	0.25226
563.50	0.24735
563.75	0.25048
564.00	0.24411
564.25	0.24167
564.50	0.23971
564.75	0.23842
565.00	0.23832
565.25	0.23171
565.50	0.23279
565.75	0.22837
566.00	0.22762
566.25	0.22329
566.50	0.22222
566.75	0.21708
567.00	0.21540
567.25	0.21565
567.50	0.21292
567.75	0.20935
568.00	0.20869
568.25	0.20610
568.50	0.20355
568.75	0.19971
569.00	0.19685
569.25	0.19411
569.50	0.19300
569.75	0.18758
570.00	0.18561
570.25	0.18276
570.50	0.18466
570.75	0.17951
571.00	0.17672
571.25	0.17595
571.50	0.17367
571.75	0.17174
572.00	0.16718
572.25	0.16531
572.50	0.16319
572.75	0.16150
573.00	0.15785
573.25	0.15366
573.50	0.15250
573.75	0.15217
574.00	0.15221
574.25	0.14844
574.50	0.14711
574.75	0.14628
575.00	0.14438
575.25	0.14016
575.50	0.13767
575.75	0.13670
576.00	0.13321
576.25	0.13257
576.50	0.13038
576.75	0.12798
577.00	0.12661
577.25	0.12512
577.50	0.12161
577.75	0.11921
578.00	0.11796
578.25	0.11437
578.50	0.11422
578.75	0.11064
579.00	0.10942
579.25	0.10871
579.50	0.10749
579.75	0.10456
580.00	0.10119
580.25	0.10250
580.50	0.099303
580.75	0.096474
581.00	0.096466
581.25	0.094091
581.50	0.093231
581.75	0.090195
582.00	0.089717
582.25	0.088251
582.50	0.084458
582.75	0.085725
583.00	0.084234
583.25	0.082075
583.50	0.080410
583.75	0.079270
584.00	0.076107
584.25	0.074696
584.50	0.073668
584.75	0.074569
585.00	0.072393
585.25	0.070927
585.50	0.068624
585.75	0.068481
586.00	0.067588
586.25	0.066098
586.50	0.063580
586.75	0.062696
587.00	0.063030
587.25	0.060791
587.50	0.061126
587.75	0.058887
588.00	0.056648
588.25	0.054767
588.50	0.055907
588.75	0.053628
589.00	0.052138
589.25	0.054193
589.50	0.050847
589.75	0.052122
590.00	0.050879
590.25	0.049620
590.50	0.049309
590.75	0.047189
591.00	0.046990
591.25	0.043579
591.50	0.044145
591.75	0.042998
592.00	0.043938
592.25	0.041739
592.50	0.041197
592.75	0.041332
593.00	0.039739
593.25	0.039563
593.50	0.035380
593.75	0.037723
594.00	0.037284
594.25	0.036862
594.50	0.034838
594.75	0.033691
595.00	0.034392
595.25	0.033635
595.50	0.032591
595.75	0.029850
596.00	0.030575
596.25	0.031188
596.50	0.029228
596.75	0.028551
597.00	0.029141
597.25	0.030177
597.50	0.025882
597.75	0.027587
598.00	0.026567
598.25	0.028145
598.50	0.025770
598.75	0.024328
599.00	0.027061
599.25	0.025419
599.50	0.025794
599.75	0.024065
600.00	0.023427
600.25	0.023387
600.50	0.022081
600.75	0.022551
601.00	0.018431
601.25	0.020598
601.50	0.021252
601.75	0.021284
602.00	0.019132
602.25	0.020192
602.50	0.020057
602.75	0.018566
603.00	0.018718
603.25	0.018511
603.50	0.017730
603.75	0.016192
604.00	0.017029
604.25	0.018208
604.50	0.016072
604.75	0.015905
605.00	0.017642
605.25	0.016941
605.50	0.014407
605.75	0.014503
606.00	0.016901
606.25	0.014447
606.50	0.013985
606.75	0.014909
607.00	0.014901
607.25	0.013044
607.50	0.013578
607.75	0.013299
608.00	0.013777
608.25	0.012989
608.50	0.011259
608.75	0.013419
609.00	0.011801
609.25	0.011905
609.50	0.012542
609.75	0.011769
610.00	0.013204
610.25	0.012192
610.50	0.012869
610.75	0.010941
611.00	0.0091876
611.25	0.010662
611.50	0.0090442
611.75	0.0096020
612.00	0.0086059
612.25	0.010973
612.50	0.010957
612.75	0.010662
613.00	0.010032
613.25	0.0078170
613.50	0.0099765
613.75	0.010662
614.00	0.0093948
614.25	0.0098251
614.50	0.010590
614.75	0.0087175
615.00	0.0080242
615.25	0.0091478
615.50	0.0080163
615.75	0.0087254
616.00	0.0078170
616.25	0.0082712
616.50	0.0088450
616.75	0.0086617
617.00	0.0095542
617.25	0.0065023
617.50	0.0080083
617.75	0.0065262
618.00	0.0081836
618.25	0.0090761
618.50	0.0063190
618.75	0.0080083
619.00	0.0066935
619.25	0.0085103
619.50	0.0061995
619.75	0.0080481
620.00	0.0063588
620.25	0.0063269
620.50	0.0072911
620.75	0.0053070
621.00	0.0060560
621.25	0.0029802
621.50	0.0054584
621.75	0.0070999
622.00	0.0059604
622.25	0.0061118
622.50	0.0051795
622.75	0.0068369
623.00	0.0051237
623.25	0.0075461
623.50	0.0054026
623.75	0.0075461
624.00	0.0043587
624.25	0.0054026
624.50	0.0052671
624.75	0.0042791
625.00	0.0074027
625.25	0.0034981
625.50	0.0054743
625.75	0.0053468
626.00	0.0052512
626.25	0.0053389
626.50	0.0052193
626.75	0.0056018
627.00	0.0050759
627.25	0.0054345
627.50	0.0046934
627.75	0.0037770
628.00	0.0059524
628.25	0.0054823
628.50	0.0046376
628.75	0.0046376
629.00	0.0056257
629.25	0.0032591
629.50	0.0042950
629.75	0.0038567
630.00	0.0037770
630.25	0.0044464
630.50	0.0037292
630.75	0.0048209
631.00	0.0052990
631.25	0.0049484
631.50	0.0042950
631.75	0.0043269
632.00	0.0059126
632.25	0.0047970
632.50	0.0041516
632.75	0.0038727
633.00	0.0047253
633.25	0.0038408
633.50	0.0038567
633.75	0.0029324
634.00	0.0048368
634.25	0.0040241
634.50	0.0033627
634.75	0.0031635
635.00	0.0051078
635.25	0.0036336
635.50	0.0031953
635.75	0.0041037
636.00	0.0046217
636.25	0.0033069
636.50	0.0024782
636.75	0.0042631
637.00	0.0027252
637.25	0.0040878
637.50	0.0023587
637.75	0.0030918
638.00	0.0043508
638.25	0.0040320
638.50	0.0024304
638.75	0.0019921
639.00	0.0047014
639.25	0.0023268
639.50	0.0052273
639.75	0.0016335
640.00	0.0019363
640.25	0.0020399
640.50	0.0026774
640.75	0.0030360
641.00	0.0026535
641.25	0.0036097
641.50	0.0013307
641.75	0.0034424
642.00	0.0021355
642.25	0.0032113
642.50	0.0051078
642.75	0.0050520
643.00	0.0047492
643.25	0.0045659
643.50	0.0038966
643.75	0.0035858
644.00	0.00072513
644.25	0.0030758
644.50	0.0033786
644.75	0.0049564
645.00	0.0032193
645.25	0.0020080
645.50	0.0024304
645.75	0.0019045
646.00	0.0037372
646.25	0.0031157
646.50	0.0048687
646.75	0.0024304
647.00	0.0030041
647.25	0.0013228
647.50	0.0024224
647.75	0.0036336
648.00	0.0040320
648.25	0.0031475
648.50	0.0016176
648.75	0.0037452
649.00	0.0045500
649.25	0.0036097
649.50	0.0037292
649.75	0.0014024
650.00	0.0034583
650.25	0.0029483
650.50	0.0029085
650.75	0.0018885
651.00	0.0022312
651.25	0.0043269
651.50	0.0028846
651.75	0.0028766
652.00	0.0030439
652.25	0.0029404
652.50	0.0018407
652.75	0.0026933
653.00	0.0039523
653.25	0.0025897
653.50	0.0025340
653.75	0.0027730
654.00	0.0014264
654.25	0.0012112
654.50	0.0015140
654.75	0.0029483
655.00	0.0018487
655.25	0.00076497
655.50	0.0024065
655.75	0.0038647
656.00	0.00075700
656.25	0.0020320
656.50	0.0019045
656.75	0.0026933
657.00	0.0042631
657.25	0.0019921
657.50	0.0023108
657.75	0.0048209
658.00	0.00047811
658.25	0.0034503
658.50	0.0013865
658.75	0.0028925
659.00	0.0010040
659.25	0.0024702
659.50	0.0018885
659.75	0.0015299
660.00	0.0016574
660.25	0.0016096
660.50	0.0023905
660.75	0.0012192
661.00	0.0023108
661.25	0.0024702
661.50	0.0034344
661.75	0.0025101
662.00	0.0020798
662.25	0.00094825
662.50	0.0013228
662.75	0.0019523
663.00	0.0019045
663.25	0.0027491
663.50	0.0010359
663.75	0.0026535
664.00	0.0018885
664.25	0.00094825
664.50	0.0014662
664.75	0.0017610
665.00	0.0035539
665.25	0.0032591
665.50	0.0026854
665.75	0.0014901
666.00	0.0014024
666.25	0.0023746
666.50	0.0027969
666.75	0.0025977
667.00	0.0037133
667.25	0.0034503
667.50	0.0029961
667.75	0.0020001
668.00	0.0023985
668.25	0.0028288
668.50	0.0021993
668.75	0.0025818
669.00	0.0029165
669.25	0.0023587
669.50	0.0019523
669.75	0.0031635
670.00	0.00093231
670.25	0.0031157
670.50	0.0027332
670.75	0.00067732
671.00	0.0028129
671.25	0.0031396
671.50	0.0036974
671.75	0.0025419
672.00	0.00054185
672.25	0.0014981
672.50	0.00035061
672.75	0.0011236
673.00	0.0028129
673.25	0.0018009
673.50	0.0040161
673.75	0.0031316
674.00	0.0029563
674.25	0.0012510
674.50	0.0025021
674.75	0.0033547
675.00	0.0027332
675.25	0.0013706
675.50	0.0027332
675.75	0.0028129
676.00	0.0028049
676.25	0.0029244
676.50	0.00053389
676.75	0.00091637
677.00	0.0030838
677.25	0.0015857
677.50	0.0033707
677.75	0.0019363
678.00	0.0022073
678.25	0.0024304
678.50	0.0030838
678.75	0.0024304
679.00	0.0024782
679.25	0.0027890
679.50	0.0017770
679.75	0.0021355
680.00	0.0010518
680.25	0.0029005
680.50	0.0027411
680.75	0.0010837
681.00	0.0027093
681.25	0.0020957
681.50	0.0047731
681.75	0.0025180
682.00	0.0020399
682.25	0.00093231
682.50	0.0025499
682.75	0.0023427
683.00	0.0025340
683.25	0.0038408
683.50	0.0046297
683.75	0.0039364
684.00	0.00074903
684.25	0.0020479
684.50	0.0020798
684.75	0.0021037
685.00	0.0033786
685.25	0.0033228
685.50	0.0029165
685.75	0.0018088
686.00	0.0052751
686.25	0.0025340
686.50	0.0038727
686.75	0.0033547
687.00	0.0026057
687.25	0.0031714
687.50	0.0012431
687.75	0.0026455
688.00	0.0019363
688.25	0.0041834
688.50	0.0033627
688.75	0.0022869
689.00	0.0029961
689.25	0.00079684
689.50	0.0033388
689.75	0.00074107
690.00	0.0028288
690.25	0.0019921
690.50	0.0022471
690.75	0.0035699
691.00	0.0020798
691.25	0.0030439
691.50	0.0031555
691.75	0.0030041
692.00	0.0013228
692.25	0.0015778
692.50	0.0021276
692.75	0.0021515
693.00	0.0027252
693.25	0.0013785
693.50	0.0029085
693.75	0.0024383
694.00	0.0035778
694.25	0.0011236
694.50	0.0019284
694.75	0.0015937
695.00	0.0014582
695.25	0.0021037
695.50	0.0018487
695.75	0.0032591
696.00	0.0010837
696.25	0.0014662
696.50	0.0028607
696.75	0.0018885
697.00	0.0026137
697.25	0.0012192
697.50	0.0026137
697.75	0.0030599
698.00	0.0026854
698.25	0.0019045
698.50	0.0010996
698.75	0.0017849
699.00	0.0015778
699.25	0.0017849
699.50	0.0024941
699.75	0.0029563
700.00	0.0036177
