Wavelength (nm)	S09 abs N
300.06	0.17557
300.25	0.17538
300.44	0.17533
300.63	0.17438
300.81	0.17449
301.00	0.17507
301.19	0.17482
301.38	0.17453
301.56	0.17497
301.75	0.17486
301.94	0.17547
302.13	0.17560
302.31	0.17577
302.50	0.17594
302.69	0.17566
302.88	0.17614
303.06	0.17671
303.25	0.17599
303.44	0.17659
303.63	0.17764
303.81	0.17830
304.00	0.17806
304.19	0.17888
304.38	0.17893
304.56	0.17840
304.75	0.17822
304.94	0.17890
305.13	0.17901
305.31	0.18055
305.50	0.18171
305.69	0.18205
305.88	0.18263
306.06	0.18325
306.25	0.18413
306.44	0.18462
306.63	0.18478
306.81	0.18481
307.00	0.18555
307.19	0.18625
307.38	0.18659
307.56	0.18788
307.75	0.18923
307.94	0.19000
308.13	0.19130
308.31	0.19258
308.50	0.19232
308.69	0.19395
308.88	0.19391
309.06	0.19492
309.25	0.19569
309.44	0.19595
309.63	0.19726
309.81	0.20112
310.00	0.20209
310.19	0.19580
310.38	0.20131
310.56	0.19616
310.75	0.20199
310.94	0.20415
311.13	0.19900
311.31	0.20981
311.50	0.20234
311.69	0.20291
311.88	0.20174
312.06	0.20487
312.25	0.21563
312.44	0.20135
312.63	0.21272
312.81	0.20575
313.00	0.21305
313.19	0.21093
313.38	0.21104
313.56	0.21826
313.75	0.21377
313.94	0.21968
314.13	0.21871
314.31	0.21999
314.50	0.21590
314.69	0.22763
314.88	0.21736
315.06	0.21979
315.25	0.21824
315.44	0.21418
315.63	0.22440
315.81	0.22394
316.00	0.22266
316.19	0.22520
316.38	0.22231
316.56	0.22256
316.75	0.22634
316.94	0.22356
317.13	0.23116
317.31	0.23302
317.50	0.23504
317.69	0.23467
317.88	0.22945
318.06	0.23261
318.25	0.23219
318.44	0.23497
318.63	0.24401
318.81	0.23798
319.00	0.23748
319.19	0.23994
319.38	0.24117
319.56	0.24040
319.75	0.24443
319.94	0.24665
320.13	0.24203
320.31	0.24674
320.50	0.24884
320.69	0.25245
320.88	0.24549
321.06	0.25057
321.25	0.24846
321.44	0.25376
321.63	0.25180
321.81	0.24866
322.00	0.25790
322.19	0.25222
322.38	0.25765
322.56	0.25632
322.75	0.26194
322.94	0.25792
323.13	0.26182
323.31	0.25646
323.50	0.25886
323.69	0.26003
323.88	0.26323
324.06	0.26111
324.25	0.26424
324.44	0.27091
324.63	0.26218
324.81	0.26917
325.00	0.26950
325.19	0.26850
325.38	0.27001
325.56	0.27141
325.75	0.26935
325.94	0.26467
326.13	0.27171
326.31	0.27111
326.50	0.27471
326.69	0.27057
326.88	0.27008
327.06	0.27029
327.25	0.27402
327.44	0.27046
327.63	0.27055
327.81	0.27274
328.00	0.26891
328.19	0.27016
328.38	0.26829
328.56	0.26470
328.75	0.26316
328.94	0.26605
329.13	0.25956
329.31	0.25983
329.50	0.26691
329.69	0.26212
329.88	0.26372
330.06	0.25897
330.25	0.26056
330.44	0.25644
330.63	0.25367
330.81	0.25602
331.00	0.25474
331.19	0.25553
331.38	0.26037
331.56	0.24887
331.75	0.26141
331.94	0.25401
332.13	0.25163
332.31	0.24936
332.50	0.25174
332.69	0.24533
332.88	0.24841
333.06	0.24132
333.25	0.24871
333.44	0.24760
333.63	0.23967
333.81	0.24425
334.00	0.24813
334.19	0.24294
334.38	0.24267
334.56	0.23368
334.75	0.24224
334.94	0.23634
335.13	0.23916
335.31	0.24163
335.50	0.23154
335.69	0.23509
335.88	0.23795
336.06	0.23241
336.25	0.23556
336.44	0.23039
336.63	0.23389
336.81	0.22270
337.00	0.23133
337.19	0.22752
337.38	0.23241
337.56	0.23101
337.75	0.22810
337.94	0.22445
338.13	0.22598
338.31	0.22140
338.50	0.22609
338.69	0.22200
338.88	0.22946
339.06	0.22445
339.25	0.22718
339.44	0.22363
339.63	0.22505
339.81	0.22582
340.00	0.21775
340.19	0.21819
340.38	0.22591
340.56	0.21798
340.75	0.21935
340.94	0.22356
341.13	0.21852
341.31	0.21716
341.50	0.22008
341.69	0.21552
341.88	0.22030
342.06	0.22377
342.25	0.22437
342.44	0.21524
342.63	0.21800
342.81	0.21412
343.00	0.22246
343.19	0.21770
343.38	0.21781
343.56	0.21605
343.75	0.21490
343.94	0.21805
344.13	0.21772
344.31	0.21262
344.50	0.21547
344.69	0.21696
344.88	0.21533
345.06	0.21622
345.25	0.21928
345.44	0.21658
345.63	0.22068
345.81	0.21691
346.00	0.21915
346.19	0.22099
346.38	0.22250
346.56	0.21658
346.75	0.21493
346.94	0.22200
347.13	0.21754
347.31	0.21533
347.50	0.22201
347.69	0.22143
347.88	0.21901
348.06	0.22273
348.25	0.21977
348.44	0.21760
348.63	0.21870
348.81	0.21929
349.00	0.22220
349.19	0.22203
349.38	0.22044
349.56	0.22234
349.75	0.22195
349.94	0.21817
350.13	0.22260
350.31	0.22134
350.50	0.22480
350.69	0.22314
350.88	0.21791
351.06	0.22347
351.25	0.22629
351.44	0.21942
351.63	0.22722
351.81	0.22093
352.00	0.22150
352.19	0.22311
352.38	0.22710
352.56	0.22539
352.75	0.22424
352.94	0.22382
353.13	0.22870
353.31	0.22611
353.50	0.22988
353.69	0.22511
353.88	0.22514
354.06	0.22780
354.25	0.23109
354.44	0.22882
354.63	0.23179
354.81	0.23137
355.00	0.23152
355.19	0.23330
355.38	0.23279
355.56	0.23688
355.75	0.23616
355.94	0.23572
356.13	0.23591
356.31	0.23415
356.50	0.23844
356.69	0.24070
356.88	0.24314
357.06	0.23818
357.25	0.23833
357.44	0.24253
357.63	0.24019
357.81	0.23953
358.00	0.24106
358.19	0.23924
358.38	0.24308
358.56	0.24152
358.75	0.24238
358.94	0.24580
359.13	0.24404
359.31	0.25056
359.50	0.24265
359.69	0.24707
359.88	0.24659
360.06	0.24819
360.25	0.24633
360.44	0.25052
360.63	0.24564
360.81	0.24873
361.00	0.24780
361.19	0.25043
361.38	0.24770
361.56	0.25187
361.75	0.24954
361.94	0.24799
362.13	0.25302
362.31	0.25127
362.50	0.24838
362.69	0.24772
362.88	0.25064
363.06	0.24819
363.25	0.24903
363.44	0.24938
363.63	0.24691
363.81	0.24904
364.00	0.24902
364.19	0.24761
364.38	0.24719
364.56	0.24633
364.75	0.24770
364.94	0.24506
365.13	0.24136
365.31	0.24264
365.50	0.24490
365.69	0.24193
365.88	0.24377
366.06	0.24016
366.25	0.23833
366.44	0.23574
366.63	0.23555
366.81	0.23481
367.00	0.23879
367.19	0.23562
367.38	0.22974
367.56	0.23035
367.75	0.23227
367.94	0.23125
368.13	0.22810
368.31	0.22617
368.50	0.22480
368.69	0.22359
368.88	0.22130
369.06	0.22037
369.25	0.21952
369.44	0.22082
369.63	0.21510
369.81	0.21675
370.00	0.21401
370.19	0.21318
370.38	0.21373
370.56	0.20882
370.75	0.20536
370.94	0.20680
371.13	0.20545
371.31	0.20785
371.50	0.20375
371.69	0.20323
371.88	0.20276
372.06	0.20001
372.25	0.19761
372.44	0.19724
372.63	0.19821
372.81	0.19586
373.00	0.19595
373.19	0.19539
373.38	0.19607
373.56	0.19281
373.75	0.19068
373.94	0.18818
374.13	0.19084
374.31	0.18562
374.50	0.18701
374.69	0.18625
374.88	0.18297
375.06	0.18248
375.25	0.18087
375.44	0.18075
375.63	0.17831
375.81	0.17663
376.00	0.17620
376.19	0.17687
376.38	0.17524
376.56	0.17495
376.75	0.17410
376.94	0.17080
377.13	0.17027
377.31	0.17155
377.50	0.16912
377.69	0.16598
377.88	0.16620
378.06	0.16558
378.25	0.16586
378.44	0.16217
378.63	0.16295
378.81	0.16186
379.00	0.16228
379.19	0.16029
379.38	0.16048
379.56	0.15850
379.75	0.16232
379.94	0.15774
380.13	0.15649
380.31	0.15745
380.50	0.15398
380.69	0.15687
380.88	0.15677
381.06	0.15583
381.25	0.15444
381.44	0.15159
381.63	0.15110
381.81	0.15431
382.00	0.15182
382.19	0.15089
382.38	0.15254
382.56	0.15451
382.75	0.14838
382.94	0.15060
383.13	0.14996
383.31	0.14949
383.50	0.14579
383.69	0.14855
383.88	0.14786
384.06	0.14768
384.25	0.14851
384.44	0.14681
384.63	0.14707
384.81	0.14571
385.00	0.14626
385.19	0.14804
385.38	0.14634
385.56	0.14623
385.75	0.14323
385.94	0.14607
386.13	0.14591
386.31	0.14354
386.50	0.14620
386.69	0.14612
386.88	0.14493
387.06	0.14301
387.25	0.14312
387.44	0.14301
387.63	0.14230
387.81	0.14160
388.00	0.14031
388.19	0.14207
388.38	0.14223
388.56	0.14416
388.75	0.14529
388.94	0.14250
389.13	0.14186
389.31	0.14197
389.50	0.14242
389.69	0.13858
389.88	0.13939
390.06	0.13977
390.25	0.13838
390.44	0.13997
390.63	0.13985
390.81	0.13913
391.00	0.13837
391.19	0.13821
391.38	0.13705
391.56	0.13931
391.75	0.13880
391.94	0.13522
392.13	0.13947
392.31	0.13875
392.50	0.13839
392.69	0.13342
392.88	0.13814
393.06	0.13737
393.25	0.13611
393.44	0.13888
393.63	0.13707
393.81	0.13399
394.00	0.13718
394.19	0.13652
394.38	0.13657
394.56	0.13739
394.75	0.13623
394.94	0.13185
395.13	0.13447
395.31	0.13394
395.50	0.13503
395.69	0.13631
395.88	0.13533
396.06	0.13454
396.25	0.13445
396.44	0.13364
396.63	0.13324
396.81	0.13411
397.00	0.13605
397.19	0.13459
397.38	0.13381
397.56	0.13239
397.75	0.13222
397.94	0.13129
398.13	0.13201
398.31	0.13076
398.50	0.13410
398.69	0.13206
398.88	0.13278
399.06	0.13546
399.25	0.13267
399.44	0.13053
399.63	0.13059
399.81	0.13329
400.00	0.13277
400.19	0.13284
400.38	0.13069
400.56	0.13219
400.75	0.13110
400.94	0.12784
401.13	0.12889
401.31	0.12784
401.50	0.13078
401.69	0.12964
401.88	0.12682
402.06	0.13075
402.25	0.13013
402.44	0.12801
402.63	0.12714
402.81	0.12984
403.00	0.12928
403.19	0.12950
403.38	0.12830
403.56	0.13002
403.75	0.13050
403.94	0.12898
404.13	0.12847
404.31	0.12918
404.50	0.12814
404.69	0.12663
404.88	0.12723
405.06	0.12860
405.25	0.12675
405.44	0.12580
405.63	0.12617
405.81	0.12607
406.00	0.12724
406.19	0.12386
406.38	0.12574
406.56	0.12367
406.75	0.12518
406.94	0.12690
407.13	0.12771
407.31	0.12539
407.50	0.12437
407.69	0.12600
407.88	0.12640
408.06	0.12670
408.25	0.12139
408.44	0.12483
408.63	0.12532
408.81	0.12647
409.00	0.12460
409.19	0.12585
409.38	0.12472
409.56	0.12228
409.75	0.12206
409.94	0.12079
410.13	0.12184
410.31	0.12290
410.50	0.12362
410.69	0.12155
410.88	0.12307
411.06	0.12361
411.25	0.11867
411.44	0.12241
411.63	0.12283
411.81	0.12102
412.00	0.12141
412.19	0.12216
412.38	0.12163
412.56	0.12159
412.75	0.12042
412.94	0.11880
413.13	0.11967
413.31	0.12132
413.50	0.12195
413.69	0.11785
413.88	0.11983
414.06	0.12186
414.25	0.11760
414.44	0.11753
414.63	0.11979
414.81	0.11788
415.00	0.11780
415.19	0.11746
415.38	0.11641
415.56	0.11806
415.75	0.11783
415.94	0.11804
416.13	0.11905
416.31	0.11917
416.50	0.11794
416.69	0.11608
416.88	0.11745
417.06	0.11720
417.25	0.11613
417.44	0.11390
417.63	0.11620
417.81	0.11616
418.00	0.11644
418.19	0.11554
418.38	0.11563
418.56	0.11404
418.75	0.11535
418.94	0.11438
419.13	0.11294
419.31	0.11290
419.50	0.11535
419.69	0.11372
419.88	0.11457
420.06	0.11146
420.25	0.11269
420.44	0.11399
420.63	0.10996
420.81	0.11215
421.00	0.11201
421.19	0.11045
421.38	0.11088
421.56	0.11172
421.75	0.11122
421.94	0.11285
422.13	0.10933
422.31	0.10861
422.50	0.10902
422.69	0.10943
422.88	0.11034
423.06	0.10850
423.25	0.10982
423.44	0.10805
423.63	0.10946
423.81	0.10836
424.00	0.10821
424.19	0.10653
424.38	0.10647
424.56	0.10503
424.75	0.10700
424.94	0.10760
425.13	0.10513
425.31	0.10504
425.50	0.10429
425.69	0.10526
425.88	0.10430
426.06	0.10410
426.25	0.10204
426.44	0.10319
426.63	0.10190
426.81	0.10400
427.00	0.10160
427.19	0.10189
427.38	0.10292
427.56	0.10076
427.75	0.10079
427.94	0.10038
428.13	0.10046
428.31	0.10036
428.50	0.10139
428.69	0.097954
428.88	0.098826
429.06	0.096814
429.25	0.10038
429.44	0.099291
429.63	0.097820
429.81	0.097584
430.00	0.096852
430.19	0.095960
430.38	0.094369
430.56	0.095553
430.75	0.095508
430.94	0.094146
431.13	0.093050
431.31	0.094489
431.50	0.093159
431.69	0.091720
431.88	0.092114
432.06	0.091191
432.25	0.092044
432.44	0.091382
432.63	0.090631
432.81	0.087294
433.00	0.088498
433.19	0.090382
433.38	0.087676
433.56	0.089727
433.75	0.086562
433.94	0.087351
434.13	0.087288
434.31	0.086097
434.50	0.083747
434.69	0.082862
434.88	0.084594
435.06	0.083766
435.25	0.082888
435.44	0.082295
435.63	0.084269
435.81	0.081245
436.00	0.081850
436.19	0.080576
436.38	0.079869
436.56	0.078991
436.75	0.081022
436.94	0.080525
437.13	0.079341
437.31	0.079545
437.50	0.077265
437.69	0.077061
437.88	0.078411
438.06	0.077940
438.25	0.077704
438.44	0.077119
438.63	0.075915
438.81	0.077762
439.00	0.076864
439.19	0.078488
439.38	0.073941
439.56	0.075297
439.75	0.074743
439.94	0.074743
440.13	0.073846
440.31	0.074317
440.50	0.071808
440.69	0.075055
440.88	0.076456
441.06	0.073132
441.25	0.072897
441.44	0.072273
441.63	0.073362
441.81	0.071942
442.00	0.071566
442.19	0.070999
442.38	0.072547
442.56	0.069668
442.75	0.071916
442.94	0.071872
443.13	0.069917
443.31	0.068344
443.50	0.070050
443.69	0.069923
443.88	0.069885
444.06	0.068478
444.25	0.067542
444.44	0.069528
444.63	0.068318
444.81	0.065956
445.00	0.067586
445.19	0.067924
445.38	0.064447
445.56	0.065880
445.75	0.065950
445.94	0.065701
446.13	0.065313
446.31	0.065173
446.50	0.064090
446.69	0.064256
446.88	0.064912
447.06	0.063734
447.25	0.061359
447.44	0.063651
447.63	0.063422
447.81	0.062288
448.00	0.061664
448.19	0.060645
448.38	0.060028
448.56	0.060162
448.75	0.058786
448.94	0.058863
449.13	0.059327
449.31	0.058621
449.50	0.057334
449.69	0.056538
449.88	0.055787
450.06	0.055927
450.25	0.054507
450.44	0.056131
450.63	0.055704
450.81	0.055303
451.00	0.054431
451.19	0.054571
451.38	0.052953
451.56	0.052317
451.75	0.052355
451.94	0.050948
452.13	0.051833
452.31	0.049789
452.50	0.051871
452.69	0.050031
452.88	0.050349
453.06	0.048687
453.25	0.047477
453.44	0.048190
453.63	0.048165
453.81	0.047318
454.00	0.046834
454.19	0.045713
454.38	0.045611
454.56	0.045376
454.75	0.045140
454.94	0.044211
455.13	0.043300
455.31	0.044249
455.50	0.042192
455.69	0.042504
455.88	0.041555
456.06	0.043039
456.25	0.041625
456.44	0.040829
456.63	0.039588
456.81	0.040740
457.00	0.037907
457.19	0.039779
457.38	0.038047
457.56	0.038868
457.75	0.038384
457.94	0.037830
458.13	0.036557
458.31	0.036213
458.50	0.035742
458.69	0.034557
458.88	0.033035
459.06	0.034958
459.25	0.034334
459.44	0.034054
459.63	0.032851
459.81	0.032048
460.00	0.031966
460.19	0.033010
460.38	0.030864
460.56	0.030456
460.75	0.030278
460.94	0.031717
461.13	0.029985
461.31	0.029126
461.50	0.030476
461.69	0.029705
461.88	0.029673
462.06	0.027699
462.25	0.028056
462.44	0.027935
462.63	0.027355
462.81	0.028100
463.00	0.025636
463.19	0.025280
463.38	0.026871
463.56	0.025853
463.75	0.025980
463.94	0.025330
464.13	0.025604
464.31	0.024025
464.50	0.024006
464.69	0.025490
464.88	0.024636
465.06	0.024445
465.25	0.022962
465.44	0.022007
465.63	0.024439
465.81	0.024318
466.00	0.020650
466.19	0.023197
466.38	0.020618
466.56	0.021612
466.75	0.018931
466.94	0.021370
467.13	0.020657
467.31	0.020421
467.50	0.021121
467.69	0.019555
467.88	0.020485
468.06	0.018969
468.25	0.020001
468.44	0.018740
468.63	0.017861
468.81	0.019549
469.00	0.018122
469.19	0.018180
469.38	0.018664
469.56	0.017435
469.75	0.016282
469.94	0.018734
470.13	0.016078
470.31	0.017460
470.50	0.016944
470.69	0.015925
470.88	0.016257
471.06	0.016422
471.25	0.016620
471.44	0.016212
471.63	0.016027
471.81	0.015945
472.00	0.015811
472.19	0.015480
472.38	0.016811
472.56	0.014206
472.75	0.014945
472.94	0.014365
473.13	0.013926
473.31	0.013251
473.50	0.013983
473.69	0.013620
473.88	0.014798
474.06	0.013646
474.25	0.014582
474.44	0.015072
474.63	0.013614
474.81	0.012239
475.00	0.013576
475.19	0.014053
475.38	0.013098
475.56	0.013468
475.75	0.013015
475.94	0.012888
476.13	0.012697
476.31	0.013741
476.50	0.013818
476.69	0.012277
476.88	0.012939
477.06	0.013442
477.25	0.013028
477.44	0.012761
477.63	0.011755
477.81	0.011086
478.00	0.011595
478.19	0.011233
478.38	0.012099
478.56	0.011812
478.75	0.012487
478.94	0.012130
479.13	0.010131
479.31	0.010405
479.50	0.010105
479.69	0.0096788
479.88	0.011901
480.06	0.011958
480.25	0.012200
480.44	0.012277
480.63	0.010876
480.81	0.010507
481.00	0.011283
481.19	0.0099908
481.38	0.0099781
481.56	0.011398
481.75	0.010456
481.94	0.010698
482.13	0.010488
482.31	0.010424
482.50	0.0098890
482.69	0.010978
482.88	0.010335
483.06	0.0091630
483.25	0.010086
483.44	0.0088128
483.63	0.0083352
483.81	0.0099272
484.00	0.0097234
484.19	0.010468
484.38	0.0097361
484.56	0.010742
484.75	0.0095706
484.94	0.0093095
485.13	0.0091503
485.31	0.0096916
485.50	0.0082779
485.69	0.0085199
485.88	0.0098062
486.06	0.0095960
486.25	0.0088701
486.44	0.0086345
486.63	0.0095960
486.81	0.0093795
487.00	0.0095260
487.19	0.010647
487.38	0.0088574
487.56	0.0076093
487.75	0.0094432
487.94	0.0093413
488.13	0.0089020
488.31	0.0079468
488.50	0.010188
488.69	0.0098062
488.88	0.0081506
489.06	0.0097425
489.25	0.0094432
489.44	0.0098444
489.63	0.0080678
489.81	0.0095897
490.00	0.0091821
490.19	0.0092840
490.38	0.0078258
490.56	0.0084562
490.75	0.010150
490.94	0.0087937
491.13	0.0080678
491.31	0.0086282
491.50	0.0091248
491.69	0.0085645
491.88	0.0081379
492.06	0.0073101
492.25	0.0084053
492.44	0.0090930
492.63	0.0088065
492.81	0.0085390
493.00	0.0083798
493.19	0.0093986
493.38	0.0080296
493.56	0.0089274
493.75	0.0099654
493.94	0.0089656
494.13	0.0085199
494.31	0.0085518
494.50	0.0096916
494.69	0.0096470
494.88	0.0095069
495.06	0.0084944
495.25	0.0089147
495.44	0.0077685
495.63	0.0092522
495.81	0.010125
496.00	0.0086791
496.19	0.0092840
496.38	0.0098507
496.56	0.0084371
496.75	0.010010
496.94	0.0085709
497.13	0.0099845
497.31	0.0093923
497.50	0.0082015
497.69	0.0096215
497.88	0.0095960
498.06	0.0082079
498.25	0.0078704
498.44	0.0089147
498.63	0.010042
498.81	0.0096597
499.00	0.0090548
499.19	0.0094177
499.38	0.0099526
499.56	0.0097616
499.75	0.0091057
499.94	0.0097552
500.13	0.0081570
500.31	0.010659
500.50	0.0094114
500.69	0.0095706
500.88	0.0084562
501.06	0.0095069
501.25	0.011118
501.44	0.010704
501.63	0.0095833
501.81	0.010316
502.00	0.0094623
502.19	0.010831
502.38	0.010131
502.56	0.0093031
502.75	0.010201
502.94	0.0090930
503.13	0.0096088
503.31	0.0092395
503.50	0.010182
503.69	0.010430
503.88	0.011207
504.06	0.010233
504.25	0.0090102
504.44	0.0097234
504.63	0.010023
504.81	0.0084817
505.00	0.0095960
505.19	0.0094050
505.38	0.0093923
505.56	0.011029
505.75	0.0083544
505.94	0.0090930
506.13	0.0082652
506.31	0.0083416
506.50	0.0085326
506.69	0.0099272
506.88	0.010074
507.06	0.0087555
507.25	0.010449
507.44	0.0093604
507.63	0.0077431
507.81	0.0093031
508.00	0.010004
508.19	0.0082779
508.38	0.0087746
508.56	0.0078704
508.75	0.0098699
508.94	0.0099081
509.13	0.0080487
509.31	0.0078131
509.50	0.0099208
509.69	0.0093986
509.88	0.0086855
510.06	0.0087491
510.25	0.0083671
510.44	0.0088319
510.63	0.0089465
510.81	0.010010
511.00	0.0087173
511.19	0.0081442
511.38	0.0097616
511.56	0.010443
511.75	0.0085135
511.94	0.0082843
512.12	0.0072782
512.31	0.0093413
512.50	0.0076985
512.69	0.0081633
512.88	0.0083735
513.06	0.0090039
513.25	0.0083735
513.44	0.0080996
513.62	0.0081633
513.81	0.0068771
514.00	0.0070299
514.19	0.0065141
514.37	0.0075711
514.56	0.0088765
514.75	0.0060238
514.94	0.0085072
515.12	0.0093477
515.31	0.0078959
515.50	0.0066287
515.69	0.0073164
515.87	0.0076093
516.06	0.0066160
516.25	0.0080487
516.44	0.0074247
516.62	0.0081251
516.81	0.0063613
517.00	0.0081697
517.19	0.0060556
517.37	0.0070044
517.56	0.0068707
517.75	0.0073483
517.94	0.0071445
518.13	0.0069917
518.31	0.0057882
518.50	0.0076985
518.69	0.0071827
518.88	0.0076093
519.06	0.0080105
519.25	0.0062785
519.44	0.0054889
519.62	0.0079787
519.81	0.0063040
520.00	0.0077685
520.19	0.0060875
520.38	0.0062467
520.56	0.0057882
520.75	0.0063804
520.94	0.0064186
521.12	0.0051451
521.31	0.0067497
521.50	0.0040371
521.69	0.0060938
521.87	0.0070745
522.06	0.0064823
522.25	0.0059601
522.44	0.0068197
522.63	0.0067497
522.81	0.0067879
523.00	0.0053679
523.19	0.0059601
523.37	0.0051069
523.56	0.0060875
523.75	0.0041772
523.94	0.0066542
524.12	0.0066287
524.31	0.0052278
524.50	0.0064441
524.69	0.0066287
524.87	0.0047948
525.06	0.0052597
525.25	0.0057882
525.44	0.0057245
525.62	0.0059856
525.81	0.0048649
526.00	0.0047375
526.19	0.0055781
526.37	0.0055972
526.56	0.0056799
526.75	0.0053743
526.94	0.0050432
527.13	0.0060493
527.31	0.0057691
527.50	0.0050750
527.69	0.0051132
527.88	0.0022669
528.06	0.0051705
528.25	0.0035786
528.44	0.0057500
528.62	0.0029100
528.81	0.0038588
529.00	0.0035531
529.19	0.0048776
529.38	0.0031010
529.56	0.0041135
529.75	0.0046229
529.94	0.0036678
530.13	0.0041199
530.31	0.0034767
530.50	0.0022796
530.69	0.0038461
530.87	0.0041262
531.06	0.0037314
531.25	0.0061257
531.44	0.0036296
531.63	0.0035659
531.81	0.0059346
532.00	0.0038906
532.19	0.0040052
532.37	0.0029100
532.56	0.0030819
532.75	0.0045401
532.94	0.0037887
533.12	0.0044637
533.31	0.0043746
533.50	0.0033175
533.69	0.0048012
533.87	0.0046293
534.06	0.0040371
534.25	0.0035850
534.44	0.0036487
534.62	0.0039034
534.81	0.0029164
535.00	0.0030246
535.19	0.0036359
535.37	0.0021523
535.56	0.0035277
535.75	0.0025280
535.94	0.0039798
536.12	0.0034067
536.31	0.0030628
536.50	0.0039925
536.69	0.0029036
536.88	0.0035850
537.06	0.0025471
537.25	0.0028527
537.44	0.0032666
537.63	0.0031010
537.81	0.0032475
538.00	0.0026426
538.19	0.0027254
538.37	0.0035022
538.56	0.0030055
538.75	0.0031138
538.94	0.0031775
539.13	0.0047248
539.31	0.0042217
539.50	0.0021968
539.69	0.0029291
539.87	0.0035595
540.06	0.0030310
540.25	0.0023433
540.44	0.0024706
540.62	0.0030883
540.81	0.0022287
541.00	0.0026871
541.19	0.0029482
541.38	0.0033494
541.56	0.0023178
541.75	0.00083416
541.94	0.0024452
542.12	0.0023178
542.31	0.0033048
542.50	0.0026744
542.69	0.0026171
542.87	0.0028145
543.06	0.0020822
543.25	0.0036487
543.44	0.0018084
543.62	0.0029546
543.81	0.0040116
544.00	0.0024897
544.19	0.0017384
544.37	0.0022796
544.56	0.0027254
544.75	0.0031647
544.94	0.0027954
545.12	0.0026553
545.31	0.0028400
545.50	0.0030692
545.69	0.0016365
545.88	0.0028845
546.06	0.0021332
546.25	0.0022796
546.44	0.0029673
546.63	0.0032539
546.81	0.0016429
547.00	0.0028145
547.19	0.0023051
547.37	0.0023624
547.56	0.0020822
547.75	0.0019740
547.94	0.0036168
548.13	0.0029864
548.31	0.0027699
548.50	0.0015601
548.69	0.0021968
548.88	0.0024197
549.06	0.0023306
549.25	0.0024324
549.44	0.0024452
549.62	0.0015855
549.81	0.0023433
550.00	0.0026871
550.19	0.0031138
550.38	0.0028973
550.56	0.0019931
550.75	0.0029227
550.94	0.0030246
551.12	0.0023560
551.31	0.0039607
551.50	0.0036296
551.69	0.0030246
551.87	0.0024579
552.06	0.0024197
552.25	0.0031201
552.44	0.0027126
552.62	0.0025853
552.81	0.0033940
553.00	0.0020695
553.19	0.0031966
553.37	0.0020376
553.56	0.0017002
553.75	0.0022605
553.94	0.0023879
554.12	0.0023433
554.31	0.0033112
554.50	0.0030501
554.69	0.0026680
554.87	0.0020822
555.06	0.0027763
555.25	0.0031584
555.44	0.0020122
555.63	0.0024643
555.81	0.0025407
556.00	0.0034513
556.19	0.0025471
556.38	0.0030883
556.56	0.0024006
556.75	0.0035022
556.94	0.0027954
557.12	0.0020631
557.31	0.00052851
557.50	0.0018339
557.69	0.0041772
557.88	0.0034385
558.06	0.0028209
558.25	0.0015346
558.44	0.0039925
558.62	0.0031520
558.81	0.0036168
559.00	0.0016429
559.19	0.0022414
559.37	0.0039479
559.56	0.0029355
559.75	0.0035914
559.94	0.0019803
560.13	0.0024706
560.31	0.0017766
560.50	0.0024197
560.69	0.00020376
560.87	0.0012162
561.06	0.0020440
561.25	0.0018594
561.44	0.0027190
561.62	0.0036041
561.81	0.0041008
562.00	0.0022350
562.19	0.0028973
562.37	0.0015983
562.56	0.0033685
562.75	0.0011016
562.94	0.0013308
563.12	0.0014136
563.31	0.0034003
563.50	0.0021395
563.69	0.0024006
563.87	0.0015728
564.06	0.0010570
564.25	0.0017384
564.44	0.0027381
564.63	0.00063676
564.81	0.00058582
565.00	0.0013436
565.19	0.00082143
565.38	0.0022924
565.56	0.0021968
565.75	0.0016110
565.94	0.0010379
566.12	0.0020822
566.31	0.0019612
566.50	0.0030119
566.69	0.0012863
566.88	0.00038206
567.06	0.0023624
567.25	0.0032793
567.44	0.0024388
567.63	0.0023115
567.81	0.0012863
568.00	0.0018594
568.19	0.0022669
568.37	0.0018976
568.56	0.0025216
568.75	0.0014327
568.94	0.0012544
569.13	0.0015091
569.31	0.0026935
569.50	0.0018657
569.69	0.0029482
569.87	0.0029482
570.06	0.00061766
570.25	0.0014518
570.44	0.0020313
570.62	0.0040880
570.81	0.00099972
571.00	0.0025662
571.19	0.0019740
571.37	0.0013117
571.56	0.0019612
571.75	0.0014900
571.94	0.0012926
572.12	0.0024388
572.31	0.0022032
572.50	0.0012162
572.69	0.0021777
572.87	0.0024070
573.06	0.0022350
573.25	0.0012226
573.44	0.0013881
573.62	0.0034131
573.81	0.0032411
574.00	0.0025980
574.19	0.0021141
574.38	0.0025662
574.56	0.0027508
574.75	0.0024515
574.94	0.0020886
575.13	0.0031966
575.31	0.0019294
575.50	0.0017575
575.69	0.00092968
575.87	0.0016556
576.06	0.0036678
576.25	0.0017129
576.44	0.0018912
576.63	0.0017447
576.81	0.0020058
577.00	0.0020631
577.19	0.0023942
577.37	0.0033749
577.56	0.0033175
577.75	0.0024452
577.94	0.0034194
578.12	0.0022414
578.31	0.0025662
578.50	0.0030565
578.69	0.0033621
578.88	0.0023433
579.06	0.0017702
579.25	0.0025598
579.44	0.0016938
579.62	0.0036041
579.81	0.0020567
580.00	0.0028145
580.19	0.0014009
580.37	0.0014455
580.56	0.0018402
580.75	0.0015473
580.94	0.0024388
581.12	0.0024452
581.31	0.0018785
581.50	0.0022096
581.69	0.0023688
581.87	0.0032348
582.06	0.0031329
582.25	0.0025343
582.44	0.0036232
582.62	0.0020886
582.81	0.0030374
583.00	0.0040817
583.19	0.0031520
583.38	0.0020631
583.56	0.0026235
583.75	0.0022223
583.94	0.0022669
584.13	0.0029227
584.31	0.0028145
584.50	0.0034831
584.69	0.0030628
584.87	0.0025662
585.06	0.0034640
585.25	0.0031138
585.44	0.0045147
585.63	0.0038333
585.81	0.0031010
586.00	0.0016174
586.19	0.0026680
586.38	0.0023942
586.56	0.0025343
586.75	0.0035659
586.94	0.0032220
587.12	0.0027572
587.31	0.0035149
587.50	0.0037123
587.69	0.0031584
587.88	0.0031329
588.06	0.0032093
588.25	0.0038015
588.44	0.0028463
588.62	0.0041199
588.81	0.0041262
589.00	0.0035404
589.19	0.0044319
589.37	0.0030119
589.56	0.0041963
589.75	0.0038588
589.94	0.0012735
590.12	0.0030692
590.31	0.0040435
590.50	0.0034831
590.69	0.0030183
590.87	0.0033430
591.06	0.0034767
591.25	0.0036614
591.44	0.0026553
591.62	0.0036996
591.81	0.0048776
592.00	0.0032284
592.19	0.0035022
592.37	0.0045720
592.56	0.0043491
592.75	0.0036168
592.94	0.0033557
593.13	0.0038524
593.31	0.0043236
593.50	0.0037569
593.69	0.0044574
593.88	0.0027699
594.06	0.0031647
594.25	0.0049158
594.44	0.0058200
594.62	0.0037442
594.81	0.0056226
595.00	0.0039479
595.19	0.0048713
595.38	0.0041262
595.56	0.0045592
595.75	0.0041008
595.94	0.0044382
596.12	0.0044637
596.31	0.0037760
596.50	0.0027126
596.69	0.0043427
596.87	0.0044701
597.06	0.0054061
597.25	0.0041644
597.44	0.0047948
597.63	0.0069662
597.81	0.0044382
598.00	0.0045401
598.19	0.0062976
598.37	0.0044382
598.56	0.0042281
598.75	0.0045465
598.94	0.0038524
599.12	0.0047439
599.31	0.0051578
599.50	0.0039097
599.69	0.0073037
599.87	0.0047757
600.06	0.0074820
600.25	0.0049859
600.44	0.0054507
600.62	0.0050241
600.81	0.0056099
601.00	0.0053425
601.19	0.0041835
601.37	0.0050750
601.56	0.0035659
601.75	0.0059983
601.94	0.0063995
602.13	0.0036932
602.31	0.0046484
602.50	0.0064504
602.69	0.0052788
602.88	0.0056417
603.06	0.0045019
603.25	0.0054061
603.44	0.0057500
603.62	0.0067688
603.81	0.0058009
604.00	0.0055781
604.19	0.0051896
604.38	0.0066924
604.56	0.0053234
604.75	0.0051960
604.94	0.0057054
605.13	0.0055844
605.31	0.0053042
605.50	0.0050686
605.69	0.0068707
605.87	0.0053234
606.06	0.0050304
606.25	0.0053361
606.44	0.0066542
606.63	0.0054634
606.81	0.0059920
607.00	0.0054443
607.19	0.0059283
607.37	0.0063103
607.56	0.0070999
607.75	0.0059601
607.94	0.0064632
608.12	0.0056863
608.31	0.0055590
608.50	0.0060174
608.69	0.0060365
608.87	0.0063358
609.06	0.0054889
609.25	0.0065778
609.44	0.0068580
609.62	0.0073610
609.81	0.0067179
610.00	0.0047948
610.19	0.0071445
610.37	0.0055908
610.56	0.0053297
610.75	0.0078322
610.94	0.0052979
611.12	0.0065905
611.31	0.0084562
611.50	0.0077112
611.69	0.0078131
611.88	0.0067242
612.06	0.0071318
612.25	0.0071318
612.44	0.0075011
612.63	0.0060747
612.81	0.0080232
613.00	0.0064250
613.19	0.0082206
613.37	0.0074438
613.56	0.0070299
613.75	0.0067561
613.94	0.0058391
614.13	0.0069344
614.31	0.0060747
614.50	0.0048267
614.69	0.0061129
614.87	0.0069025
615.06	0.0072527
615.25	0.0077303
615.44	0.0069980
615.62	0.0087937
615.81	0.0074692
616.00	0.0073737
616.19	0.0093541
616.38	0.0068134
616.56	0.0079277
616.75	0.0085008
616.94	0.0065841
617.12	0.0080933
617.31	0.0074183
617.50	0.0089529
617.69	0.0085326
617.87	0.0093031
618.06	0.0077494
618.25	0.010462
618.44	0.0088638
618.62	0.0098507
618.81	0.0095324
619.00	0.0087428
619.19	0.0087937
619.37	0.0091694
619.56	0.0082206
619.75	0.0076157
619.94	0.0098125
620.12	0.0079850
620.31	0.0098316
620.50	0.0081379
620.69	0.0098826
620.88	0.0089402
621.06	0.010494
621.25	0.010589
621.44	0.0098890
621.63	0.011595
621.81	0.012678
622.00	0.011385
622.19	0.012105
622.37	0.010341
622.56	0.0098635
622.75	0.0092968
622.94	0.011462
623.13	0.011220
623.31	0.013404
623.50	0.013015
623.69	0.011417
623.88	0.011283
624.06	0.010698
624.25	0.011112
624.44	0.011385
624.62	0.012506
624.81	0.012793
625.00	0.012372
625.19	0.011990
625.38	0.013557
625.56	0.013111
625.75	0.015359
625.94	0.014665
626.12	0.013086
626.31	0.014862
626.50	0.014155
626.69	0.014996
626.87	0.014735
627.06	0.015938
627.25	0.012933
627.44	0.015289
627.62	0.016460
627.81	0.017008
628.00	0.015957
628.19	0.016887
628.37	0.016804
628.56	0.015454
628.75	0.016830
628.94	0.017708
629.12	0.017307
629.31	0.016734
629.50	0.016734
629.69	0.017906
629.87	0.018052
630.06	0.018288
630.25	0.017447
630.44	0.018931
630.63	0.016543
630.81	0.018581
631.00	0.017817
631.19	0.019638
631.38	0.018899
631.56	0.019173
631.75	0.019192
631.94	0.018778
632.12	0.019727
632.31	0.019631
632.50	0.019122
632.69	0.019268
632.88	0.019994
633.06	0.019237
633.25	0.020829
633.44	0.020275
633.62	0.021109
633.81	0.019931
634.00	0.020224
634.19	0.020663
634.37	0.020657
634.56	0.020128
634.75	0.019918
634.94	0.021440
635.13	0.021274
635.31	0.022739
635.50	0.023598
635.69	0.020606
635.87	0.021332
636.06	0.021975
636.25	0.022306
636.44	0.020364
636.62	0.022134
636.81	0.023165
637.00	0.023395
637.19	0.022045
637.37	0.023923
637.56	0.023503
637.75	0.021752
637.94	0.023853
638.12	0.023433
638.31	0.024152
638.50	0.024433
638.69	0.024280
638.87	0.023108
639.06	0.023770
639.25	0.023751
639.44	0.023401
639.63	0.024121
639.81	0.024566
640.00	0.026629
640.19	0.024401
640.37	0.024827
640.56	0.023420
640.75	0.025050
640.94	0.026076
641.12	0.025471
641.31	0.025604
641.50	0.026770
641.69	0.026298
641.88	0.026311
642.06	0.025381
642.25	0.027508
642.44	0.024554
642.63	0.026458
642.81	0.025789
643.00	0.025025
643.19	0.025522
643.38	0.026222
643.56	0.026139
643.75	0.026642
643.94	0.026139
644.12	0.027871
644.31	0.025152
644.50	0.027808
644.69	0.025407
644.87	0.026693
645.06	0.027311
645.25	0.027909
645.44	0.025407
645.62	0.027387
645.81	0.026133
646.00	0.028368
646.19	0.027546
646.37	0.026400
646.56	0.028775
646.75	0.028381
646.94	0.027336
647.13	0.029030
647.31	0.029374
647.50	0.030386
647.69	0.028107
647.87	0.028744
648.06	0.030240
648.25	0.028724
648.44	0.029960
648.62	0.027941
648.81	0.027292
649.00	0.029138
649.19	0.030234
649.38	0.030647
649.56	0.031749
649.75	0.030310
649.94	0.031316
650.13	0.029425
650.31	0.028540
650.50	0.028884
650.69	0.030367
650.88	0.029145
651.06	0.031163
651.25	0.030539
651.44	0.030170
651.62	0.031080
651.81	0.033494
652.00	0.031348
652.19	0.032717
652.37	0.032125
652.56	0.031908
652.75	0.029826
652.94	0.032106
653.12	0.030310
653.31	0.032812
653.50	0.031584
653.69	0.032329
653.88	0.033927
654.06	0.031297
654.25	0.033952
654.44	0.031431
654.63	0.032074
654.81	0.034150
655.00	0.033303
655.19	0.033411
655.37	0.034678
655.56	0.034716
655.75	0.036315
655.94	0.034678
656.12	0.036270
656.31	0.035735
656.50	0.035455
656.69	0.035576
656.87	0.036939
657.06	0.037703
657.25	0.036531
657.44	0.037232
657.62	0.038913
657.81	0.037353
658.00	0.037798
658.19	0.038664
658.38	0.036805
658.56	0.035264
658.75	0.037626
658.94	0.039696
659.12	0.039435
659.31	0.037798
659.50	0.039148
659.69	0.040804
659.87	0.040422
660.06	0.041199
660.25	0.041237
660.44	0.040033
660.63	0.039912
660.81	0.042281
661.00	0.042491
661.19	0.040371
661.38	0.042937
661.56	0.041925
661.75	0.041199
661.94	0.043714
662.13	0.041148
662.31	0.043523
662.50	0.043529
662.69	0.042065
662.87	0.044204
663.06	0.042536
663.25	0.043599
663.44	0.044363
663.62	0.044554
663.81	0.043962
664.00	0.043211
664.19	0.043720
664.37	0.042810
664.56	0.041963
664.75	0.044879
664.94	0.044453
665.12	0.045522
665.31	0.042994
665.50	0.044287
665.69	0.046134
665.88	0.044854
666.06	0.045045
666.25	0.043988
666.44	0.044459
666.62	0.046630
666.81	0.044497
667.00	0.045879
667.19	0.045369
667.37	0.044484
667.56	0.045828
667.75	0.046732
667.94	0.045198
668.13	0.045217
668.31	0.046255
668.50	0.044943
668.69	0.044332
668.88	0.046930
669.06	0.048088
669.25	0.045930
669.44	0.048413
669.63	0.047191
669.81	0.046216
670.00	0.045879
670.19	0.046764
670.37	0.047108
670.56	0.049050
670.75	0.046630
670.94	0.046732
671.12	0.046509
671.31	0.046751
671.50	0.047757
671.69	0.048611
671.87	0.046662
672.06	0.046942
672.25	0.050788
672.44	0.048502
672.63	0.050247
672.81	0.049948
673.00	0.049674
673.19	0.051788
673.38	0.050960
673.56	0.050540
673.75	0.051954
673.94	0.053622
674.12	0.052043
674.31	0.051470
674.50	0.054520
674.69	0.054813
674.87	0.054061
675.06	0.056003
675.25	0.054080
675.44	0.057092
675.62	0.057850
675.81	0.056965
676.00	0.057341
676.19	0.057627
676.37	0.059824
676.56	0.060302
676.75	0.060945
676.94	0.059703
677.13	0.062046
677.31	0.061346
677.50	0.061862
677.69	0.064937
677.87	0.064727
678.06	0.063874
678.25	0.066325
678.44	0.067255
678.62	0.067478
678.81	0.069350
679.00	0.069929
679.19	0.071184
679.38	0.070560
679.56	0.074928
679.75	0.073820
679.94	0.075832
680.13	0.075960
680.31	0.077679
680.50	0.079220
680.69	0.081086
680.88	0.079634
681.06	0.082582
681.25	0.083009
681.44	0.084218
681.62	0.084836
681.81	0.086492
682.00	0.088211
682.19	0.089064
682.37	0.090618
682.56	0.092923
682.75	0.093744
682.94	0.095489
683.12	0.096508
683.31	0.098883
683.50	0.098004
683.69	0.10066
683.87	0.099851
684.06	0.10488
684.25	0.10358
684.44	0.10685
684.63	0.10700
684.81	0.10798
685.00	0.11019
685.19	0.11270
685.37	0.11275
685.56	0.11478
685.75	0.11581
685.94	0.11615
686.12	0.11974
686.31	0.12095
686.50	0.12062
686.69	0.12242
686.88	0.12542
687.06	0.12660
687.25	0.12747
687.44	0.12997
687.63	0.13110
687.81	0.13157
688.00	0.13258
688.19	0.13550
688.38	0.13542
688.56	0.13592
688.75	0.13589
688.94	0.13840
689.12	0.13948
689.31	0.14080
689.50	0.14360
689.69	0.14323
689.87	0.14432
690.06	0.14296
690.25	0.14579
690.44	0.14768
690.62	0.14874
690.81	0.14965
691.00	0.15165
691.19	0.15280
691.38	0.15334
691.56	0.15311
691.75	0.15749
691.94	0.15604
692.13	0.15775
692.31	0.15997
692.50	0.15890
692.69	0.16085
692.87	0.16213
693.06	0.16229
693.25	0.16439
693.44	0.16541
693.62	0.16591
693.81	0.16569
694.00	0.16690
694.19	0.16921
694.37	0.16898
694.56	0.16941
694.75	0.17186
694.94	0.17177
695.12	0.17239
695.31	0.17310
695.50	0.17387
695.69	0.17218
695.88	0.17201
696.06	0.17470
696.25	0.17505
696.44	0.17677
696.62	0.17412
696.81	0.17392
697.00	0.17490
697.19	0.17373
697.37	0.17447
697.56	0.17292
697.75	0.17325
697.94	0.17436
698.13	0.17481
698.31	0.17364
698.50	0.17231
698.69	0.17484
698.88	0.17573
699.06	0.17460
699.25	0.17284
699.44	0.17238
699.63	0.17148
699.81	0.17053
700.00	0.17067
700.19	0.17105
700.37	0.17103
700.56	0.16800
700.75	0.16880
700.94	0.16870
701.12	0.16997
701.31	0.16751
701.50	0.16744
701.69	0.16952
701.87	0.16742
702.06	0.16362
702.25	0.16481
702.44	0.16222
702.62	0.16252
702.81	0.16085
703.00	0.16229
703.19	0.16179
703.38	0.15865
703.56	0.15859
703.75	0.15972
703.94	0.15674
704.12	0.15665
704.31	0.15422
704.50	0.15594
704.69	0.15415
704.87	0.15454
705.06	0.15183
705.25	0.15290
705.44	0.15275
705.63	0.15269
705.81	0.14935
706.00	0.15114
706.19	0.14840
706.38	0.14918
706.56	0.14788
706.75	0.14548
706.94	0.14717
707.13	0.14947
707.31	0.14459
707.50	0.14633
707.69	0.14451
707.87	0.14321
708.06	0.14326
708.25	0.14369
708.44	0.14158
708.62	0.14230
708.81	0.13959
709.00	0.14122
709.19	0.13805
709.37	0.13861
709.56	0.13968
709.75	0.14161
709.94	0.13425
710.13	0.13717
710.31	0.13871
710.50	0.13638
710.69	0.13789
710.88	0.13525
711.06	0.13485
711.25	0.13748
711.44	0.13367
711.62	0.13228
711.81	0.13477
712.00	0.13296
712.19	0.13228
712.37	0.13310
712.56	0.13059
712.75	0.13291
712.94	0.13313
713.12	0.13382
713.31	0.13133
713.50	0.13099
713.69	0.12971
713.87	0.13061
714.06	0.13092
714.25	0.12859
714.44	0.12666
714.63	0.12735
714.81	0.12717
715.00	0.12814
715.19	0.12972
715.37	0.12786
715.56	0.12488
715.75	0.12372
715.94	0.12976
716.12	0.12591
716.31	0.12511
716.50	0.12876
716.69	0.12577
716.88	0.12752
717.06	0.12348
717.25	0.12340
717.44	0.12620
717.63	0.12584
717.81	0.12202
718.00	0.12528
718.19	0.12461
718.38	0.12233
718.56	0.12364
718.75	0.12262
718.94	0.12251
719.12	0.12197
719.31	0.12579
719.50	0.12171
719.69	0.12314
719.87	0.12455
720.06	0.12379
720.25	0.12235
720.44	0.12299
720.62	0.12423
720.81	0.12430
721.00	0.12380
721.19	0.12087
721.37	0.12348
721.56	0.12304
721.75	0.12266
721.94	0.12287
722.13	0.11873
722.31	0.11792
722.50	0.12028
722.69	0.12107
722.87	0.12327
723.06	0.12207
723.25	0.11952
723.44	0.12107
723.62	0.11965
723.81	0.11983
724.00	0.12103
724.19	0.12281
724.38	0.12121
724.56	0.11850
724.75	0.12109
724.94	0.12279
725.13	0.12121
725.31	0.12448
725.50	0.12093
725.69	0.12135
725.88	0.12041
726.06	0.12007
726.25	0.12317
726.44	0.12273
726.62	0.12213
726.81	0.12269
727.00	0.12326
727.19	0.12467
727.37	0.12591
727.56	0.12346
727.75	0.12423
727.94	0.12553
728.12	0.12887
728.31	0.12556
728.50	0.12899
728.69	0.12708
728.88	0.12679
729.06	0.13007
729.25	0.12554
729.44	0.12737
729.63	0.12502
729.81	0.12812
730.00	0.12788
730.19	0.12736
730.37	0.13009
730.56	0.12982
730.75	0.13094
730.94	0.13302
731.12	0.13534
731.31	0.13275
731.50	0.13247
731.69	0.13563
731.87	0.13540
732.06	0.13710
732.25	0.13726
732.44	0.13701
732.62	0.13817
732.81	0.14093
733.00	0.13993
733.19	0.14280
733.38	0.14304
733.56	0.14015
733.75	0.14113
733.94	0.14382
734.12	0.14414
734.31	0.14553
734.50	0.14674
734.69	0.15080
734.87	0.14644
735.06	0.15024
735.25	0.15231
735.44	0.15459
735.63	0.15056
735.81	0.15319
736.00	0.15581
736.19	0.15741
736.38	0.15539
736.56	0.15853
736.75	0.15919
736.94	0.15644
737.13	0.15812
737.31	0.16294
737.50	0.16174
737.69	0.16330
737.87	0.16262
738.06	0.16520
738.25	0.16746
738.44	0.16642
738.62	0.16856
738.81	0.17021
739.00	0.16711
739.19	0.16924
739.37	0.17287
739.56	0.17126
739.75	0.17516
739.94	0.17576
740.12	0.17473
740.31	0.17650
740.50	0.17641
740.69	0.17731
740.88	0.17887
741.06	0.17947
741.25	0.18012
741.44	0.17875
741.62	0.17901
741.81	0.18014
742.00	0.18245
742.19	0.18298
742.37	0.17978
742.56	0.18236
742.75	0.18211
742.94	0.18371
743.13	0.18597
743.31	0.18234
743.50	0.17946
743.69	0.18487
743.88	0.18358
744.06	0.18278
744.25	0.18366
744.44	0.18310
744.63	0.18853
744.81	0.18448
745.00	0.18124
745.19	0.18509
745.37	0.18511
745.56	0.18417
745.75	0.18317
745.94	0.18354
746.12	0.18292
746.31	0.18259
746.50	0.18248
746.69	0.18488
746.87	0.18064
747.06	0.18392
747.25	0.18320
747.44	0.18551
747.63	0.18216
747.81	0.18218
748.00	0.18140
748.19	0.18216
748.38	0.18481
748.56	0.18074
748.75	0.18471
748.94	0.18184
749.12	0.18161
749.31	0.18359
749.50	0.17998
749.69	0.18075
749.87	0.18048
750.06	0.17892
750.25	0.17837
750.44	0.17711
750.62	0.17447
750.81	0.17981
751.00	0.17763
751.19	0.17779
751.37	0.17680
751.56	0.17721
751.75	0.17684
751.94	0.17407
752.13	0.17950
752.31	0.17761
752.50	0.17752
752.69	0.17363
752.87	0.17605
753.06	0.18126
753.25	0.17507
753.44	0.17612
753.62	0.17558
753.81	0.17614
754.00	0.17351
754.19	0.17605
754.38	0.17466
754.56	0.17741
754.75	0.17765
754.94	0.18064
755.13	0.17853
755.31	0.18055
755.50	0.17963
755.69	0.17983
755.88	0.18667
756.06	0.18333
756.25	0.18787
756.44	0.18562
756.62	0.18514
756.81	0.19091
757.00	0.19277
757.19	0.18948
757.37	0.19139
757.56	0.19398
757.75	0.19390
757.94	0.19765
758.12	0.19822
758.31	0.20241
758.50	0.20292
758.69	0.20468
758.87	0.20377
759.06	0.21116
759.25	0.20576
759.44	0.21101
759.63	0.21411
759.81	0.21863
760.00	0.22385
760.19	0.22636
760.37	0.23353
760.56	0.23544
760.75	0.23604
760.94	0.23944
761.12	0.24247
761.31	0.24810
761.50	0.24848
761.69	0.25902
761.88	0.25421
762.06	0.26516
762.25	0.26809
762.44	0.27254
762.63	0.27854
762.81	0.28370
763.00	0.29064
763.19	0.29196
763.38	0.30007
763.56	0.30442
763.75	0.31007
763.94	0.31764
764.12	0.32392
764.31	0.32795
764.50	0.33458
764.69	0.34191
764.87	0.34792
765.06	0.35048
765.25	0.35830
765.44	0.36764
765.62	0.37297
765.81	0.38361
766.00	0.38893
766.19	0.40361
766.38	0.40100
766.56	0.41648
766.75	0.41814
766.94	0.43080
767.13	0.43439
767.31	0.44072
767.50	0.44923
767.69	0.45702
767.87	0.46700
768.06	0.47196
768.25	0.47549
768.44	0.47453
768.62	0.47871
768.81	0.48583
769.00	0.48912
769.19	0.49955
769.37	0.51056
769.56	0.51699
769.75	0.52917
769.94	0.53107
770.12	0.53466
770.31	0.54330
770.50	0.54920
770.69	0.55998
770.88	0.56388
771.06	0.57793
771.25	0.58325
771.44	0.59051
771.62	0.59621
771.81	0.60900
772.00	0.61528
772.19	0.62086
772.37	0.62793
772.56	0.64469
772.75	0.64880
772.94	0.65707
773.13	0.66182
773.31	0.66667
773.50	0.67652
773.69	0.68336
773.88	0.69434
774.06	0.69441
774.25	0.71467
774.44	0.71392
774.63	0.71604
774.81	0.73223
775.00	0.74512
775.19	0.75125
775.37	0.75436
775.56	0.75669
775.75	0.77396
775.94	0.77590
776.12	0.78576
776.31	0.79404
776.50	0.80431
776.69	0.80271
776.87	0.81184
777.06	0.81131
777.25	0.82695
777.44	0.83496
777.62	0.83386
777.81	0.85904
778.00	0.85344
778.19	0.85689
778.38	0.86873
778.56	0.88185
778.75	0.87562
778.94	0.88552
779.12	0.87616
779.31	0.88953
779.50	0.90109
779.69	0.91124
779.87	0.90407
780.06	0.91623
780.25	0.92876
780.44	0.93271
780.63	0.92614
780.81	0.94922
781.00	0.94107
781.19	0.95033
781.38	0.96304
781.56	0.95624
781.75	0.96264
781.94	0.97820
782.13	0.95803
782.31	0.97251
782.50	0.96337
782.69	0.97855
782.87	0.97803
783.06	0.98762
783.25	0.98269
783.44	0.97820
783.62	0.98278
783.81	0.97634
784.00	0.99461
784.19	0.99119
784.37	1.0000
784.56	0.98031
784.75	0.99873
784.94	0.99638
785.13	0.98211
785.31	0.98919
785.50	0.97719
785.69	0.99279
785.88	0.96193
786.06	0.97875
786.25	0.94504
786.44	0.96012
786.62	0.96069
786.81	0.97073
787.00	0.95656
787.19	0.94646
787.37	0.94369
787.56	0.93183
787.75	0.92816
787.94	0.92458
788.12	0.92395
788.31	0.91303
788.50	0.90252
788.69	0.88634
788.87	0.88500
789.06	0.88212
789.25	0.87123
789.44	0.85935
789.63	0.85451
789.81	0.85124
790.00	0.85105
790.19	0.83411
790.37	0.81514
790.56	0.80840
790.75	0.79840
790.94	0.79092
791.12	0.77706
791.31	0.77632
791.50	0.75885
791.69	0.75115
791.88	0.73435
792.06	0.73188
792.25	0.71498
792.44	0.70084
792.63	0.68368
792.81	0.67658
793.00	0.66271
793.19	0.65642
793.38	0.64316
793.56	0.62107
793.75	0.61933
793.94	0.60142
794.12	0.58661
794.31	0.58422
794.50	0.56433
794.69	0.54830
794.87	0.52868
795.06	0.52163
795.25	0.50638
795.44	0.49208
795.62	0.47911
795.81	0.46995
796.00	0.45648
796.19	0.44080
796.37	0.43895
796.56	0.42654
796.75	0.41563
796.94	0.39685
797.13	0.39335
797.31	0.37937
797.50	0.36666
797.69	0.35777
797.87	0.34949
798.06	0.33417
798.25	0.32982
798.44	0.32658
798.62	0.31917
798.81	0.30582
799.00	0.29939
799.19	0.28909
799.38	0.28196
799.56	0.27574
799.75	0.26696
799.94	0.25880
800.13	0.25199
800.31	0.24798
800.50	0.24470
800.69	0.23434
800.88	0.22395
801.06	0.22469
801.25	0.20792
801.44	0.21019
801.62	0.20511
801.81	0.20209
802.00	0.18735
802.19	0.18873
802.37	0.17978
802.56	0.17507
802.75	0.17589
802.94	0.16821
803.12	0.16427
803.31	0.15676
803.50	0.14983
803.69	0.15139
803.88	0.14448
804.06	0.14109
804.25	0.13846
804.44	0.13406
804.63	0.12779
804.81	0.12616
805.00	0.12591
805.19	0.11687
805.37	0.11136
805.56	0.11113
805.75	0.11030
805.94	0.10892
806.12	0.10438
806.31	0.10131
806.50	0.094489
806.69	0.096050
806.87	0.090924
807.06	0.087816
807.25	0.080780
807.44	0.086205
807.62	0.080201
807.81	0.078965
808.00	0.079952
808.19	0.076132
808.38	0.083849
808.56	0.078704
808.75	0.073349
808.94	0.074813
809.12	0.067440
809.31	0.074081
809.50	0.069821
809.69	0.062435
809.87	0.063390
810.06	0.058436
810.25	0.061531
810.44	0.062059
810.62	0.062702
810.81	0.053342
811.00	0.057525
811.19	0.056284
811.37	0.052278
811.56	0.056825
811.75	0.050253
811.94	0.050877
812.12	0.051234
812.31	0.050234
812.50	0.038543
812.69	0.046770
812.88	0.047019
813.06	0.041422
813.25	0.041090
813.44	0.042237
813.63	0.039282
813.81	0.039454
814.00	0.039518
814.19	0.040727
814.38	0.037601
814.56	0.035232
814.75	0.037060
814.94	0.037104
815.13	0.032392
815.31	0.035602
815.50	0.031424
815.69	0.027597
815.88	0.031978
816.06	0.026343
816.25	0.029565
816.44	0.030036
816.62	0.028393
816.81	0.020064
817.00	0.028979
817.19	0.023242
817.37	0.023032
817.56	0.027254
817.75	0.026050
817.94	0.020567
818.13	0.027120
818.31	0.024356
818.50	0.028654
818.69	0.024827
818.88	0.024522
819.06	0.027381
819.25	0.023885
819.44	0.023458
819.63	0.022586
819.81	0.020001
820.00	0.018683
820.19	0.020950
820.37	0.018269
820.56	0.025643
820.75	0.017263
820.94	0.018294
821.12	0.016479
821.31	0.022058
821.50	0.023643
821.69	0.021293
821.87	0.017778
822.06	0.015607
822.25	0.017390
822.44	0.015034
822.63	0.015238
822.81	0.015881
823.00	0.017728
823.19	0.013983
823.38	0.016983
823.56	0.018332
823.75	0.018231
823.94	0.016142
824.12	0.013086
824.31	0.017753
824.50	0.014397
824.69	0.015225
824.87	0.012551
825.06	0.018434
825.25	0.016422
825.44	0.019300
825.62	0.014569
825.81	0.015957
826.00	0.015690
826.19	0.015072
826.37	0.0096661
826.56	0.014900
826.75	0.014989
826.94	0.016467
827.13	0.017244
827.31	0.014779
827.50	0.0091312
827.69	0.016709
827.87	0.015263
828.06	0.016021
828.25	0.017880
828.44	0.012971
828.62	0.014423
828.81	0.018307
829.00	0.016148
829.19	0.0075075
829.37	0.013423
829.56	0.012398
829.75	0.013028
829.94	0.011271
830.12	0.013105
830.31	0.013340
830.50	0.011570
830.69	0.0075138
830.87	0.012468
831.06	0.0059920
831.25	0.012321
831.44	0.010105
831.63	0.013901
831.81	0.013410
832.00	0.012411
832.19	0.016288
832.38	0.013633
832.56	0.0026235
832.75	0.0013881
832.94	0.0099590
833.13	0.013525
833.31	0.017899
833.50	0.013671
833.69	0.0086154
833.88	0.011086
834.06	0.0077303
834.25	0.010685
834.44	0.0064313
834.63	0.012347
834.81	0.0079787
835.00	0.0047630
835.19	0.010812
835.37	0.0074565
835.56	0.013442
835.75	0.0094241
835.94	0.0022414
836.12	0.013601
836.31	0.015244
836.50	0.010997
836.69	0.010475
836.88	0.0079022
837.06	0.015626
837.25	0.0039861
837.44	0.0084753
837.63	0.0090739
837.81	0.0089211
838.00	0.013308
838.19	0.0046229
838.38	0.010787
838.56	0.0057946
838.75	0.012754
838.94	0.010774
839.12	0.0011589
839.31	0.0089402
839.50	0.0048713
839.69	0.013200
839.87	0.0041199
840.06	0.0087046
840.25	0.0083926
840.44	0.0045274
840.62	0.00038206
840.81	0.0098507
841.00	0.00066223
841.19	0.0027636
841.38	0.0063231
841.56	0.011716
841.75	0.0062530
841.94	0.0072018
842.13	0.0014964
842.31	0.0073101
842.50	0.013073
842.69	0.0086918
842.87	0.0079978
843.06	0.014155
843.25	0.0062594
843.44	0.0042600
843.62	0.0039861
843.81	0.0075329
844.00	0.0071254
844.19	0.0075329
844.37	0.0011207
844.56	0.0058264
844.75	0.0044382
844.94	0.0024197
845.12	0.010844
845.31	0.00049668
845.50	0.0056035
845.69	0.0065077
845.88	0.0075457
846.06	0.0039670
846.25	0.0012290
846.44	0.0074756
846.62	0.0020695
846.81	0.0051833
847.00	0.0073292
847.19	0.0067497
847.37	0.0056736
847.56	0.012945
847.75	0.0099717
847.94	0.011869
848.12	0.013831
848.31	0.011417
848.50	0.0012417
848.69	0.0060747
848.87	0.00071318
849.06	0.00057946
849.25	0.0043427
849.44	0.0057436
849.62	0.0041708
849.81	0.0064886
850.00	0.00048814
