Wavelength (nm)	S10 abs N
300.00	0.34530
300.19	0.34847
300.38	0.35044
300.56	0.35417
300.75	0.35632
300.94	0.35873
301.13	0.36056
301.31	0.36308
301.50	0.36621
301.69	0.36727
301.88	0.37029
302.06	0.37268
302.25	0.37706
302.44	0.37999
302.63	0.38184
302.81	0.38409
303.00	0.38716
303.19	0.38966
303.38	0.39216
303.56	0.39596
303.75	0.39804
303.94	0.40075
304.13	0.40355
304.31	0.40662
304.50	0.40958
304.69	0.41154
304.88	0.41449
305.06	0.41720
305.25	0.41972
305.44	0.42438
305.63	0.42468
305.81	0.42877
306.00	0.43172
306.19	0.43586
306.38	0.43931
306.56	0.44237
306.75	0.44564
306.94	0.44749
307.13	0.45131
307.31	0.45367
307.50	0.45720
307.69	0.46034
307.88	0.46244
308.06	0.46626
308.25	0.46993
308.44	0.47189
308.63	0.47566
308.81	0.47943
309.00	0.48144
309.19	0.48573
309.38	0.48965
309.56	0.49362
309.75	0.49669
309.94	0.48905
310.13	0.48835
310.31	0.49222
310.50	0.48948
310.69	0.49929
310.88	0.50470
311.06	0.50524
311.25	0.51116
311.44	0.51363
311.63	0.53051
311.81	0.51939
312.00	0.53057
312.19	0.53052
312.38	0.53636
312.56	0.53135
312.75	0.54231
312.94	0.55711
313.13	0.55342
313.31	0.57081
313.50	0.56092
313.69	0.55832
313.88	0.57381
314.06	0.58024
314.25	0.58113
314.44	0.58775
314.63	0.59950
314.81	0.60325
315.00	0.59959
315.19	0.60470
315.38	0.61522
315.56	0.61608
315.75	0.61454
315.94	0.62425
316.13	0.63256
316.31	0.62940
316.50	0.63862
316.69	0.64494
316.88	0.64458
317.06	0.64190
317.25	0.65854
317.44	0.66258
317.63	0.65046
317.81	0.65688
318.00	0.65900
318.19	0.67299
318.38	0.68439
318.56	0.67799
318.75	0.67144
318.94	0.68372
319.13	0.67631
319.31	0.68142
319.50	0.68818
319.69	0.68917
319.88	0.70894
320.06	0.70691
320.25	0.71767
320.44	0.71459
320.63	0.72988
320.81	0.71793
321.00	0.72250
321.19	0.72316
321.38	0.74557
321.56	0.74683
321.75	0.73316
321.94	0.75956
322.13	0.73777
322.31	0.74049
322.50	0.74715
322.69	0.75986
322.88	0.75802
323.06	0.75260
323.25	0.76716
323.44	0.76823
323.63	0.76924
323.81	0.78012
324.00	0.76088
324.19	0.77610
324.38	0.78663
324.56	0.78844
324.75	0.79210
324.94	0.78991
325.13	0.79621
325.31	0.79836
325.50	0.80577
325.69	0.79675
325.88	0.80403
326.06	0.80427
326.25	0.80421
326.44	0.81331
326.63	0.82666
326.81	0.81834
327.00	0.82042
327.19	0.83308
327.38	0.83405
327.56	0.85791
327.75	0.84225
327.94	0.84437
328.13	0.84923
328.31	0.85487
328.50	0.85305
328.69	0.86414
328.88	0.85743
329.06	0.85795
329.25	0.86251
329.44	0.87324
329.63	0.86646
329.81	0.87163
330.00	0.89907
330.19	0.89132
330.38	0.89109
330.56	0.89576
330.75	0.89807
330.94	0.92254
331.13	0.89853
331.31	0.91042
331.50	0.90933
331.69	0.91750
331.88	0.92192
332.06	0.91630
332.25	0.93151
332.44	0.94115
332.63	0.92746
332.81	0.94668
333.00	0.94266
333.19	0.96024
333.38	0.96636
333.56	0.95372
333.75	0.94807
333.94	0.95486
334.13	0.94811
334.31	0.96234
334.50	0.97110
334.69	0.96237
334.88	0.96729
335.06	0.98842
335.25	0.97072
335.44	0.99453
335.63	0.97570
335.81	0.98390
336.00	0.98093
336.19	0.99843
336.38	0.99828
336.56	0.99668
336.75	0.98996
336.94	1.0092
337.13	1.0081
337.31	1.0031
337.50	1.0200
337.69	1.0163
337.88	1.0155
338.06	1.0170
338.25	1.0043
338.44	1.0123
338.63	1.0172
338.81	1.0197
339.00	1.0305
339.19	1.0204
339.38	1.0324
339.56	1.0162
339.75	1.0266
339.94	1.0144
340.13	1.0298
340.31	1.0141
340.50	1.0125
340.69	1.0115
340.88	1.0042
341.06	1.0129
341.25	1.0140
341.44	1.0003
341.63	0.99641
341.81	0.99753
342.00	0.99353
342.19	0.99714
342.38	0.98369
342.56	0.98624
342.75	0.98309
342.94	0.98151
343.13	0.95559
343.31	0.97423
343.50	0.94779
343.69	0.94942
343.88	0.95797
344.06	0.94073
344.25	0.92893
344.44	0.92510
344.63	0.92665
344.81	0.91193
345.00	0.90682
345.19	0.90665
345.38	0.90327
345.56	0.89056
345.75	0.87522
345.94	0.87369
346.13	0.86613
346.31	0.84744
346.50	0.85358
346.69	0.83872
346.88	0.83642
347.06	0.80895
347.25	0.82041
347.44	0.81017
347.63	0.80627
347.81	0.78627
348.00	0.78314
348.19	0.77396
348.38	0.75783
348.56	0.75966
348.75	0.74091
348.94	0.74341
349.13	0.72505
349.31	0.71226
349.50	0.71590
349.69	0.71050
349.88	0.69823
350.06	0.68066
350.25	0.68238
350.44	0.67359
350.63	0.66287
350.81	0.65963
351.00	0.64383
351.19	0.63566
351.38	0.63259
351.56	0.62176
351.75	0.61837
351.94	0.60915
352.13	0.59746
352.31	0.60132
352.50	0.58324
352.69	0.58095
352.88	0.57177
353.06	0.57064
353.25	0.55337
353.44	0.54313
353.63	0.53719
353.81	0.53585
354.00	0.52147
354.19	0.51720
354.38	0.50686
354.56	0.50045
354.75	0.48755
354.94	0.48816
355.13	0.48097
355.31	0.47695
355.50	0.46560
355.69	0.46528
355.88	0.45878
356.06	0.44851
356.25	0.44680
356.44	0.44246
356.63	0.43769
356.81	0.43133
357.00	0.42331
357.19	0.42352
357.38	0.41550
357.56	0.41072
357.75	0.40841
357.94	0.40488
358.13	0.40123
358.31	0.39062
358.50	0.38677
358.69	0.38528
358.88	0.38127
359.06	0.37719
359.25	0.37761
359.44	0.37091
359.63	0.36686
359.81	0.36728
360.00	0.35887
360.19	0.35712
360.38	0.35320
360.56	0.35276
360.75	0.34740
360.94	0.34334
361.13	0.33997
361.31	0.33408
361.50	0.33188
361.69	0.33365
361.88	0.32682
362.06	0.32514
362.25	0.32484
362.44	0.32245
362.63	0.31669
362.81	0.31810
363.00	0.31046
363.19	0.30950
363.38	0.30682
363.56	0.30531
363.75	0.30180
363.94	0.29538
364.13	0.29647
364.31	0.29116
364.50	0.29164
364.69	0.28895
364.88	0.28442
365.06	0.28488
365.25	0.28327
365.44	0.28082
365.63	0.27870
365.81	0.27765
366.00	0.27466
366.19	0.27136
366.38	0.27062
366.56	0.26670
366.75	0.26912
366.94	0.26680
367.13	0.26297
367.31	0.26496
367.50	0.25948
367.69	0.26185
367.88	0.25479
368.06	0.25582
368.25	0.25336
368.44	0.25252
368.63	0.24829
368.81	0.25049
369.00	0.24706
369.19	0.24586
369.38	0.24264
369.56	0.24215
369.75	0.24128
369.94	0.23998
370.13	0.23707
370.31	0.23793
370.50	0.23540
370.69	0.23381
370.88	0.23233
371.06	0.23143
371.25	0.22836
371.44	0.22802
371.63	0.22937
371.81	0.22325
372.00	0.22370
372.19	0.22454
372.38	0.22377
372.56	0.22279
372.75	0.22261
372.94	0.22092
373.13	0.21863
373.31	0.22033
373.50	0.22101
373.69	0.21753
373.88	0.21861
374.06	0.21767
374.25	0.21695
374.44	0.21600
374.63	0.21417
374.81	0.21281
375.00	0.21570
375.19	0.21155
375.38	0.20862
375.56	0.20830
375.75	0.20907
375.94	0.20715
376.13	0.20820
376.31	0.20613
376.50	0.20610
376.69	0.20446
376.88	0.20335
377.06	0.20416
377.25	0.20251
377.44	0.20134
377.63	0.19883
377.81	0.19847
378.00	0.19924
378.19	0.20181
378.38	0.19686
378.56	0.19416
378.75	0.19879
378.94	0.19428
379.13	0.19593
379.31	0.19192
379.50	0.19264
379.69	0.19349
379.88	0.19449
380.06	0.19282
380.25	0.19182
380.44	0.19076
380.63	0.18856
380.81	0.18899
381.00	0.19142
381.19	0.18669
381.38	0.19012
381.56	0.18811
381.75	0.18352
381.94	0.18520
382.13	0.18462
382.31	0.18498
382.50	0.18499
382.69	0.18503
382.88	0.18420
383.06	0.18404
383.25	0.18163
383.44	0.18189
383.63	0.17662
383.81	0.18305
384.00	0.18165
384.19	0.17990
384.38	0.17977
384.56	0.18205
384.75	0.17767
384.94	0.17990
385.13	0.17506
385.31	0.17634
385.50	0.17580
385.69	0.17411
385.88	0.17205
386.06	0.17474
386.25	0.17385
386.44	0.17570
386.63	0.17383
386.81	0.17384
387.00	0.17110
387.19	0.17201
387.38	0.16926
387.56	0.17024
387.75	0.17222
387.94	0.17017
388.13	0.16992
388.31	0.16757
388.50	0.16842
388.69	0.16814
388.88	0.16674
389.06	0.16717
389.25	0.16740
389.44	0.16403
389.63	0.16530
389.81	0.16782
390.00	0.16679
390.19	0.16554
390.38	0.16238
390.56	0.16338
390.75	0.16200
390.94	0.16055
391.13	0.15924
391.31	0.16159
391.50	0.15953
391.69	0.16045
391.88	0.16009
392.06	0.16048
392.25	0.15781
392.44	0.15770
392.63	0.15611
392.81	0.15621
393.00	0.15829
393.19	0.15714
393.38	0.15503
393.56	0.15528
393.75	0.15462
393.94	0.15300
394.13	0.15275
394.31	0.15376
394.50	0.15239
394.69	0.15045
394.88	0.15035
395.06	0.14979
395.25	0.15153
395.44	0.14892
395.63	0.14975
395.81	0.14934
396.00	0.14771
396.19	0.15013
396.38	0.14779
396.56	0.14708
396.75	0.14756
396.94	0.14801
397.13	0.14421
397.31	0.14593
397.50	0.14672
397.69	0.14366
397.88	0.14517
398.06	0.14385
398.25	0.14469
398.44	0.14232
398.63	0.14333
398.81	0.14101
399.00	0.14331
399.19	0.14141
399.38	0.14080
399.56	0.14243
399.75	0.13832
399.94	0.14015
400.13	0.13861
400.31	0.14005
400.50	0.14068
400.69	0.13713
400.88	0.13768
401.06	0.13802
401.25	0.13600
401.44	0.13486
401.63	0.13492
401.81	0.13492
402.00	0.13649
402.19	0.13410
402.38	0.13316
402.56	0.13196
402.75	0.13204
402.94	0.13333
403.13	0.13354
403.31	0.13128
403.50	0.13122
403.69	0.13366
403.88	0.13251
404.06	0.12879
404.25	0.13003
404.44	0.12968
404.63	0.12921
404.81	0.12843
405.00	0.12907
405.19	0.12943
405.38	0.12766
405.56	0.12457
405.75	0.12545
405.94	0.12786
406.13	0.12455
406.31	0.12486
406.50	0.12349
406.69	0.12492
406.88	0.12396
407.06	0.12419
407.25	0.12587
407.44	0.12080
407.63	0.12438
407.81	0.12252
408.00	0.12194
408.19	0.12078
408.38	0.12014
408.56	0.12028
408.75	0.11949
408.94	0.11737
409.13	0.11926
409.31	0.11723
409.50	0.11882
409.69	0.11755
409.88	0.11829
410.06	0.11742
410.25	0.11652
410.44	0.11601
410.63	0.11542
410.81	0.11537
411.00	0.11550
411.19	0.11535
411.38	0.11340
411.56	0.11221
411.75	0.11198
411.94	0.11120
412.13	0.11294
412.31	0.11172
412.50	0.11163
412.69	0.11119
412.88	0.11089
413.06	0.11191
413.25	0.10781
413.44	0.10962
413.63	0.10965
413.81	0.11018
414.00	0.10938
414.19	0.11036
414.38	0.10925
414.56	0.10648
414.75	0.10514
414.94	0.10672
415.13	0.10653
415.31	0.10576
415.50	0.10532
415.69	0.10427
415.88	0.10609
416.06	0.10227
416.25	0.10372
416.44	0.10388
416.63	0.10225
416.81	0.10418
417.00	0.10200
417.19	0.10152
417.38	0.10158
417.56	0.099606
417.75	0.10073
417.94	0.10039
418.13	0.099258
418.31	0.099464
418.50	0.097399
418.69	0.098650
418.88	0.096160
419.06	0.096254
419.25	0.095800
419.44	0.094962
419.63	0.095511
419.81	0.097375
420.00	0.094071
420.19	0.093428
420.38	0.092785
420.56	0.094207
420.75	0.092998
420.94	0.092897
421.13	0.093375
421.31	0.092059
421.50	0.091068
421.69	0.092201
421.88	0.093021
422.06	0.089086
422.25	0.090006
422.44	0.090596
422.63	0.087788
422.81	0.088537
423.00	0.086708
423.19	0.086820
423.38	0.088567
423.56	0.087180
423.75	0.084378
423.94	0.087876
424.13	0.086856
424.31	0.085292
424.50	0.084855
424.69	0.084673
424.88	0.085440
425.06	0.083717
425.25	0.084071
425.44	0.082324
425.63	0.082460
425.81	0.082720
426.00	0.082118
426.19	0.083923
426.38	0.081634
426.56	0.081616
426.75	0.078454
426.94	0.081758
427.13	0.079421
427.31	0.078159
427.50	0.078560
427.69	0.078778
427.88	0.076843
428.06	0.076442
428.25	0.077917
428.44	0.076637
428.63	0.077917
428.81	0.077185
429.00	0.075586
429.19	0.075681
429.38	0.075569
429.56	0.074153
429.75	0.074949
429.94	0.074737
430.13	0.073628
430.31	0.072477
430.50	0.071793
430.69	0.072288
430.88	0.071975
431.06	0.073309
431.25	0.072217
431.44	0.070813
431.63	0.070931
431.81	0.070489
432.00	0.070170
432.19	0.069320
432.38	0.069928
432.56	0.068990
432.75	0.068005
432.94	0.068937
433.13	0.068636
433.31	0.067314
433.50	0.067238
433.69	0.066176
433.88	0.067096
434.06	0.067527
434.25	0.066459
434.44	0.064394
434.63	0.064400
434.81	0.063597
435.00	0.065603
435.19	0.062913
435.38	0.063497
435.56	0.062512
435.75	0.062069
435.94	0.062293
436.13	0.062860
436.31	0.061479
436.50	0.062936
436.69	0.061804
436.88	0.059337
437.06	0.061225
437.25	0.058665
437.44	0.059084
437.63	0.058039
437.81	0.057384
438.00	0.057113
438.19	0.057992
438.38	0.059562
438.56	0.058718
438.75	0.058877
438.94	0.057975
439.13	0.055473
439.31	0.054818
439.50	0.054960
439.69	0.054824
439.88	0.054983
440.06	0.055361
440.25	0.054434
440.44	0.053355
440.63	0.052499
440.81	0.052747
441.00	0.052234
441.19	0.052086
441.38	0.052906
441.56	0.053201
441.75	0.051750
441.94	0.051195
442.13	0.052411
442.31	0.051195
442.50	0.051939
442.69	0.050647
442.88	0.050599
443.06	0.049897
443.25	0.049260
443.44	0.049974
443.63	0.048245
443.81	0.048564
444.00	0.049555
444.19	0.047826
444.38	0.047950
444.56	0.047561
444.75	0.048062
444.94	0.048717
445.13	0.047095
445.31	0.048664
445.50	0.045879
445.69	0.047272
445.88	0.045183
446.06	0.044752
446.25	0.046210
446.44	0.046103
446.63	0.044499
446.81	0.044611
447.00	0.044988
447.19	0.045248
447.38	0.043944
447.56	0.044929
447.75	0.045047
447.94	0.044044
448.13	0.045100
448.31	0.042811
448.50	0.043171
448.69	0.041466
448.88	0.042375
449.06	0.042546
449.25	0.042729
449.44	0.042705
449.63	0.043820
449.81	0.042392
450.00	0.041779
450.19	0.042711
450.38	0.041531
450.56	0.041318
450.75	0.040699
450.94	0.041625
451.13	0.041472
451.31	0.040852
451.50	0.039967
451.69	0.040115
451.88	0.040817
452.06	0.039814
452.25	0.038575
452.44	0.038740
452.63	0.039059
452.81	0.039560
453.00	0.039377
453.19	0.038498
453.38	0.039224
453.56	0.038357
453.75	0.039159
453.94	0.039206
454.13	0.038315
454.31	0.037436
454.50	0.037879
454.69	0.037572
454.88	0.037253
455.06	0.037230
455.25	0.037289
455.44	0.036775
455.63	0.037289
455.81	0.037542
456.00	0.036085
456.19	0.036917
456.38	0.036982
456.56	0.034728
456.75	0.037124
456.94	0.036256
457.13	0.034746
457.31	0.034769
457.50	0.036528
457.69	0.034911
457.88	0.033731
458.06	0.034421
458.25	0.034350
458.44	0.034539
458.63	0.033731
458.81	0.033678
459.00	0.035312
459.19	0.034870
459.38	0.034504
459.56	0.035318
459.75	0.033465
459.94	0.032162
460.13	0.032580
460.31	0.033100
460.50	0.032374
460.69	0.032628
460.88	0.032321
461.06	0.031170
461.25	0.032091
461.44	0.031377
461.63	0.032828
461.81	0.032185
462.00	0.032698
462.19	0.032356
462.38	0.032929
462.56	0.030734
462.75	0.032946
462.94	0.030946
463.13	0.030993
463.31	0.031099
463.50	0.030793
463.69	0.030781
463.88	0.031489
464.06	0.031282
464.25	0.031005
464.44	0.031052
464.63	0.030268
464.81	0.030922
465.00	0.030775
465.19	0.031589
465.38	0.029636
465.56	0.029831
465.75	0.029040
465.94	0.029648
466.13	0.029329
466.31	0.029530
466.50	0.028326
466.69	0.029176
466.88	0.030197
467.06	0.029200
467.25	0.028793
467.44	0.029217
467.63	0.030332
467.81	0.029294
468.00	0.028498
468.19	0.030132
468.38	0.028680
468.56	0.028332
468.75	0.029011
468.94	0.029860
469.13	0.028232
469.31	0.027860
469.50	0.028391
469.69	0.027760
469.88	0.029689
470.06	0.028291
470.25	0.028610
470.44	0.028126
470.63	0.028450
470.81	0.028374
471.00	0.027795
471.19	0.027559
471.38	0.028297
471.56	0.028557
471.75	0.027371
471.94	0.027559
472.13	0.029371
472.31	0.028492
472.50	0.028739
472.69	0.028881
472.88	0.029046
473.06	0.029023
473.25	0.029141
473.44	0.029660
473.63	0.029152
473.81	0.028952
474.00	0.028344
474.19	0.029046
474.38	0.029017
474.56	0.028256
474.75	0.028468
474.94	0.031448
475.13	0.030114
475.31	0.029689
475.50	0.029176
475.69	0.028928
475.88	0.029683
476.06	0.030403
476.25	0.029211
476.44	0.029436
476.63	0.029424
476.81	0.030020
477.00	0.031241
477.19	0.030976
477.38	0.031188
477.56	0.031394
477.75	0.031666
477.94	0.031507
478.13	0.032687
478.31	0.031200
478.50	0.031825
478.69	0.031217
478.88	0.030509
479.06	0.032014
479.25	0.031920
479.44	0.032775
479.63	0.031731
479.81	0.032616
480.00	0.032675
480.19	0.032179
480.38	0.032940
480.56	0.033878
480.75	0.032468
480.94	0.032970
481.13	0.034291
481.31	0.033991
481.50	0.033578
481.69	0.033672
481.88	0.033342
482.06	0.034793
482.25	0.035206
482.44	0.033873
482.63	0.035920
482.81	0.036014
483.00	0.036103
483.19	0.036014
483.38	0.035029
483.56	0.036604
483.75	0.036498
483.94	0.036410
484.13	0.037041
484.31	0.036498
484.50	0.037023
484.69	0.036817
484.88	0.036256
485.06	0.038516
485.25	0.039159
485.44	0.037501
485.63	0.038227
485.81	0.039041
486.00	0.038994
486.19	0.039135
486.38	0.038280
486.56	0.039035
486.75	0.039784
486.94	0.041307
487.13	0.038675
487.31	0.040628
487.50	0.040115
487.69	0.040298
487.88	0.039725
488.06	0.040888
488.25	0.040864
488.44	0.041195
488.63	0.040941
488.81	0.040622
489.00	0.041236
489.19	0.043089
489.38	0.041330
489.56	0.043631
489.75	0.042339
489.94	0.042481
490.13	0.043035
490.31	0.043124
490.50	0.044210
490.69	0.044522
490.88	0.043307
491.06	0.044227
491.25	0.044888
491.44	0.045331
491.63	0.045537
491.81	0.044481
492.00	0.045767
492.19	0.045932
492.38	0.046646
492.56	0.046334
492.75	0.046457
492.94	0.047325
493.13	0.046652
493.31	0.047643
493.50	0.050003
493.69	0.048546
493.88	0.048888
494.06	0.049071
494.25	0.049950
494.44	0.049880
494.63	0.050499
494.81	0.051030
495.00	0.050924
495.19	0.049921
495.38	0.051750
495.56	0.051101
495.75	0.051201
495.94	0.052712
496.13	0.053591
496.31	0.052375
496.50	0.052181
496.69	0.053190
496.88	0.054901
497.06	0.054045
497.25	0.055119
497.44	0.054965
497.63	0.057089
497.81	0.057237
498.00	0.056907
498.19	0.055839
498.38	0.056741
498.56	0.056435
498.75	0.058989
498.94	0.059432
499.13	0.059308
499.31	0.060523
499.50	0.059933
499.69	0.060641
499.88	0.061161
500.06	0.062488
500.25	0.061898
500.44	0.062164
500.63	0.063881
500.81	0.064081
501.00	0.064075
501.19	0.066034
501.38	0.065580
501.56	0.066488
501.75	0.066317
501.94	0.067775
502.13	0.068683
502.31	0.069197
502.50	0.070005
502.69	0.070217
502.88	0.071663
503.06	0.073604
503.25	0.072890
503.44	0.074395
503.63	0.075433
503.81	0.077109
504.00	0.077693
504.19	0.078271
504.38	0.079327
504.56	0.080725
504.75	0.082407
504.94	0.083156
505.13	0.084142
505.31	0.086006
505.50	0.086608
505.69	0.087357
505.88	0.089953
506.06	0.090413
506.25	0.092720
506.44	0.092189
506.63	0.094862
506.81	0.095364
507.00	0.096343
507.19	0.099830
507.38	0.10112
507.56	0.10259
507.75	0.10210
507.94	0.10555
508.13	0.10720
508.31	0.10883
508.50	0.11057
508.69	0.11181
508.88	0.11462
509.06	0.11522
509.25	0.11768
509.44	0.11959
509.63	0.12203
509.81	0.12341
510.00	0.12472
510.19	0.12656
510.38	0.13081
510.56	0.13072
510.75	0.13298
510.94	0.13407
511.13	0.13485
511.31	0.13745
511.50	0.13912
511.69	0.14078
511.88	0.14224
512.06	0.14521
512.25	0.14523
512.44	0.14597
512.63	0.14963
512.81	0.15082
513.00	0.15118
513.19	0.15277
513.37	0.15246
513.56	0.15484
513.75	0.15908
513.94	0.15788
514.13	0.16071
514.31	0.15976
514.50	0.16356
514.69	0.16488
514.87	0.16642
515.06	0.16753
515.25	0.16762
515.44	0.16703
515.62	0.16913
515.81	0.16984
516.00	0.17213
516.19	0.17156
516.38	0.17294
516.56	0.17507
516.75	0.17511
516.94	0.17415
517.12	0.17742
517.31	0.17781
517.50	0.17901
517.69	0.17880
517.87	0.18007
518.06	0.17908
518.25	0.18201
518.44	0.18328
518.62	0.18313
518.81	0.18319
519.00	0.18450
519.19	0.18489
519.37	0.18680
519.56	0.18610
519.75	0.18735
519.94	0.18880
520.12	0.18826
520.31	0.18993
520.50	0.19005
520.69	0.19074
520.88	0.19197
521.06	0.19294
521.25	0.19475
521.44	0.19492
521.63	0.19563
521.81	0.19572
522.00	0.19743
522.19	0.19751
522.37	0.19713
522.56	0.19879
522.75	0.20116
522.94	0.20048
523.13	0.20329
523.31	0.20273
523.50	0.20354
523.69	0.20528
523.88	0.20398
524.06	0.20571
524.25	0.20630
524.44	0.20748
524.62	0.20856
524.81	0.20999
525.00	0.20960
525.19	0.21233
525.38	0.20980
525.56	0.21334
525.75	0.21404
525.94	0.21296
526.12	0.21405
526.31	0.21334
526.50	0.21506
526.69	0.21682
526.87	0.21744
527.06	0.21760
527.25	0.21894
527.44	0.22025
527.62	0.21927
527.81	0.21920
528.00	0.21988
528.19	0.22045
528.37	0.22141
528.56	0.22396
528.75	0.22310
528.94	0.22522
529.12	0.22478
529.31	0.22720
529.50	0.22566
529.69	0.22763
529.87	0.22704
530.06	0.22750
530.25	0.22835
530.44	0.22991
530.63	0.23061
530.81	0.23058
531.00	0.23043
531.19	0.23105
531.38	0.23062
531.56	0.23192
531.75	0.23175
531.94	0.23424
532.12	0.23269
532.31	0.23489
532.50	0.23375
532.69	0.23466
532.88	0.23495
533.06	0.23628
533.25	0.23703
533.44	0.23780
533.62	0.23865
533.81	0.23701
534.00	0.23959
534.19	0.23799
534.37	0.24105
534.56	0.24081
534.75	0.24030
534.94	0.24160
535.13	0.24225
535.31	0.24141
535.50	0.24335
535.69	0.24400
535.87	0.24564
536.06	0.24464
536.25	0.24588
536.44	0.24699
536.62	0.24716
536.81	0.24909
537.00	0.24923
537.19	0.25066
537.37	0.25137
537.56	0.25346
537.75	0.25237
537.94	0.25448
538.12	0.25572
538.31	0.25627
538.50	0.26022
538.69	0.26110
538.87	0.26263
539.06	0.26357
539.25	0.26628
539.44	0.26771
539.63	0.26847
539.81	0.27118
540.00	0.27341
540.19	0.27520
540.38	0.27736
540.56	0.28027
540.75	0.28366
540.94	0.28372
541.12	0.28743
541.31	0.28904
541.50	0.29464
541.69	0.29741
541.88	0.29891
542.06	0.30393
542.25	0.30728
542.44	0.31173
542.63	0.31524
542.81	0.31918
543.00	0.32344
543.19	0.32775
543.37	0.33320
543.56	0.33555
543.75	0.34143
543.94	0.34594
544.13	0.35043
544.31	0.35600
544.50	0.36229
544.69	0.36695
544.87	0.37193
545.06	0.37761
545.25	0.38475
545.44	0.39047
545.62	0.39650
545.81	0.40180
546.00	0.40883
546.19	0.41752
546.37	0.42392
546.56	0.43004
546.75	0.43604
546.94	0.44150
547.12	0.44928
547.31	0.45790
547.50	0.46493
547.69	0.47207
547.87	0.47827
548.06	0.48605
548.25	0.49413
548.44	0.50437
548.62	0.51018
548.81	0.51676
549.00	0.52333
549.19	0.53302
549.38	0.54213
549.56	0.54887
549.75	0.55630
549.94	0.56742
550.13	0.57245
550.31	0.58212
550.50	0.59132
550.69	0.59591
550.87	0.60710
551.06	0.61615
551.25	0.62340
551.44	0.63029
551.63	0.63843
551.81	0.64395
552.00	0.65259
552.19	0.65629
552.37	0.66517
552.56	0.66910
552.75	0.67586
552.94	0.67605
553.12	0.68410
553.31	0.68923
553.50	0.69286
553.69	0.69237
553.88	0.69317
554.06	0.69538
554.25	0.69610
554.44	0.69378
554.62	0.69544
554.81	0.69314
555.00	0.68985
555.19	0.68709
555.37	0.68565
555.56	0.67924
555.75	0.67610
555.94	0.67220
556.12	0.66703
556.31	0.66015
556.50	0.65545
556.69	0.65360
556.87	0.64593
557.06	0.63789
557.25	0.63077
557.44	0.62105
557.62	0.61591
557.81	0.60841
558.00	0.60109
558.19	0.59477
558.38	0.58418
558.56	0.57616
558.75	0.56706
558.94	0.56082
559.13	0.54970
559.31	0.54260
559.50	0.53444
559.69	0.52689
559.87	0.51881
560.06	0.50846
560.25	0.49844
560.44	0.48982
560.63	0.48272
560.81	0.47476
561.00	0.46636
561.19	0.45960
561.38	0.44942
561.56	0.44370
561.75	0.43425
561.94	0.42666
562.12	0.42002
562.31	0.41419
562.50	0.40842
562.69	0.40080
562.88	0.39445
563.06	0.38549
563.25	0.38017
563.44	0.37462
563.62	0.36883
563.81	0.36309
564.00	0.35884
564.19	0.35449
564.37	0.34807
564.56	0.34360
564.75	0.33873
564.94	0.33590
565.12	0.33136
565.31	0.32839
565.50	0.32413
565.69	0.32130
565.87	0.31662
566.06	0.31383
566.25	0.31147
566.44	0.30661
566.62	0.30651
566.81	0.30502
567.00	0.30129
567.19	0.30079
567.37	0.29596
567.56	0.29341
567.75	0.29209
567.94	0.29147
568.13	0.29072
568.31	0.28916
568.50	0.28732
568.69	0.28721
568.88	0.28594
569.06	0.28322
569.25	0.28249
569.44	0.28040
569.62	0.27931
569.81	0.27646
570.00	0.27392
570.19	0.27316
570.38	0.26902
570.56	0.26883
570.75	0.26656
570.94	0.26499
571.12	0.26505
571.31	0.26332
571.50	0.26068
571.69	0.25696
571.87	0.25805
572.06	0.25471
572.25	0.25559
572.44	0.25021
572.63	0.25071
572.81	0.24842
573.00	0.24567
573.19	0.24543
573.37	0.24352
573.56	0.24081
573.75	0.23864
573.94	0.23673
574.12	0.23479
574.31	0.23209
574.50	0.23173
574.69	0.22879
574.87	0.22800
575.06	0.22603
575.25	0.22310
575.44	0.22235
575.62	0.22059
575.81	0.21740
576.00	0.21695
576.19	0.21461
576.37	0.21286
576.56	0.21145
576.75	0.21052
576.94	0.20831
577.13	0.20668
577.31	0.20544
577.50	0.20257
577.69	0.20253
577.88	0.20140
578.06	0.20000
578.25	0.19800
578.44	0.19663
578.62	0.19506
578.81	0.19423
579.00	0.19302
579.19	0.19226
579.38	0.19035
579.56	0.19037
579.75	0.18856
579.94	0.18708
580.13	0.18629
580.31	0.18519
580.50	0.18402
580.69	0.18311
580.87	0.18196
581.06	0.18110
581.25	0.18113
581.44	0.17961
581.63	0.17776
581.81	0.17841
582.00	0.17886
582.19	0.17539
582.37	0.17606
582.56	0.17470
582.75	0.17267
582.94	0.17307
583.12	0.17209
583.31	0.17136
583.50	0.17126
583.69	0.17154
583.87	0.16972
584.06	0.16819
584.25	0.16876
584.44	0.16730
584.62	0.16733
584.81	0.16664
585.00	0.16628
585.19	0.16514
585.37	0.16535
585.56	0.16579
585.75	0.16452
585.94	0.16444
586.12	0.16255
586.31	0.16251
586.50	0.16137
586.69	0.16039
586.88	0.15992
587.06	0.15988
587.25	0.16112
587.44	0.15901
587.63	0.15990
587.81	0.15780
588.00	0.15854
588.19	0.15724
588.37	0.15715
588.56	0.15627
588.75	0.15587
588.94	0.15542
589.13	0.15534
589.31	0.15473
589.50	0.15467
589.69	0.15400
589.87	0.15382
590.06	0.15406
590.25	0.15485
590.44	0.15418
590.62	0.15353
590.81	0.15437
591.00	0.15343
591.19	0.15334
591.38	0.15366
591.56	0.15372
591.75	0.15343
591.94	0.15319
592.12	0.15400
592.31	0.15293
592.50	0.15410
592.69	0.15203
592.87	0.15212
593.06	0.15441
593.25	0.15327
593.44	0.15502
593.62	0.15498
593.81	0.15241
594.00	0.15345
594.19	0.15248
594.37	0.15298
594.56	0.15359
594.75	0.15334
594.94	0.15344
595.12	0.15314
595.31	0.15172
595.50	0.15287
595.69	0.15080
595.88	0.15126
596.06	0.14993
596.25	0.14874
596.44	0.14926
596.63	0.14954
596.81	0.14824
597.00	0.14809
597.19	0.14697
597.37	0.14551
597.56	0.14467
597.75	0.14360
597.94	0.14348
598.13	0.14290
598.31	0.14162
598.50	0.14069
598.69	0.14145
598.88	0.13957
599.06	0.14018
599.25	0.13832
599.44	0.13848
599.62	0.13579
599.81	0.13492
600.00	0.13454
600.19	0.13405
600.38	0.13119
600.56	0.13181
600.75	0.13226
600.94	0.13159
601.12	0.13041
601.31	0.13210
601.50	0.13068
601.69	0.12949
601.87	0.12841
602.06	0.12837
602.25	0.12856
602.44	0.12718
602.62	0.12766
602.81	0.12754
603.00	0.12893
603.19	0.12867
603.37	0.13037
603.56	0.12899
603.75	0.12787
603.94	0.13121
604.12	0.12995
604.31	0.12985
604.50	0.13118
604.69	0.13200
604.87	0.13325
605.06	0.13381
605.25	0.13404
605.44	0.13564
605.63	0.13767
605.81	0.13866
606.00	0.13819
606.19	0.14158
606.38	0.14152
606.56	0.14355
606.75	0.14595
606.94	0.14746
607.12	0.15043
607.31	0.15241
607.50	0.15325
607.69	0.15570
607.88	0.15768
608.06	0.16028
608.25	0.16087
608.44	0.16464
608.62	0.16468
608.81	0.17009
609.00	0.17119
609.19	0.17182
609.37	0.17605
609.56	0.17709
609.75	0.17932
609.94	0.18296
610.13	0.18507
610.31	0.19024
610.50	0.19365
610.69	0.19791
610.87	0.20380
611.06	0.20733
611.25	0.21134
611.44	0.21896
611.62	0.22438
611.81	0.22814
612.00	0.23551
612.19	0.23924
612.37	0.25021
612.56	0.25554
612.75	0.26372
612.94	0.26981
613.12	0.27828
613.31	0.28619
613.50	0.29613
613.69	0.30541
613.87	0.31399
614.06	0.32615
614.25	0.33583
614.44	0.34764
614.63	0.36020
614.81	0.37156
615.00	0.38260
615.19	0.39819
615.38	0.41019
615.56	0.42742
615.75	0.43835
615.94	0.45405
616.12	0.47180
616.31	0.48715
616.50	0.50389
616.69	0.52069
616.88	0.53634
617.06	0.55668
617.25	0.57511
617.44	0.59202
617.63	0.60929
617.81	0.62669
618.00	0.64815
618.19	0.66416
618.37	0.68396
618.56	0.70208
618.75	0.72175
618.94	0.73989
619.13	0.75786
619.31	0.77726
619.50	0.79033
619.69	0.80993
619.87	0.82224
620.06	0.83953
620.25	0.85921
620.44	0.86860
620.62	0.88801
620.81	0.89414
621.00	0.90833
621.19	0.91917
621.37	0.92760
621.56	0.94389
621.75	0.94407
621.94	0.95479
622.12	0.96108
622.31	0.96922
622.50	0.97175
622.69	0.97581
622.87	0.98056
623.06	0.99213
623.25	0.99075
623.44	0.99171
623.62	0.99327
623.81	0.99430
624.00	0.99852
624.19	0.99631
624.38	1.00000
624.56	0.99204
624.75	0.99072
624.94	0.98766
625.13	0.97935
625.31	0.97698
625.50	0.97322
625.69	0.96591
625.87	0.94765
626.06	0.94886
626.25	0.94229
626.44	0.92877
626.63	0.91899
626.81	0.90815
627.00	0.89342
627.19	0.87875
627.37	0.86188
627.56	0.84749
627.75	0.83890
627.94	0.81868
628.12	0.80079
628.31	0.79025
628.50	0.77045
628.69	0.75248
628.88	0.73707
629.06	0.71932
629.25	0.70379
629.44	0.68406
629.62	0.66950
629.81	0.64973
630.00	0.63177
630.19	0.61697
630.37	0.59982
630.56	0.57854
630.75	0.56462
630.94	0.55067
631.12	0.53434
631.31	0.51589
631.50	0.50119
631.69	0.48626
631.87	0.46809
632.06	0.45072
632.25	0.43428
632.44	0.41708
632.62	0.40176
632.81	0.38407
633.00	0.36824
633.19	0.35204
633.38	0.34093
633.56	0.32609
633.75	0.31533
633.94	0.30178
634.13	0.28936
634.31	0.28214
634.50	0.27063
634.69	0.26108
634.87	0.25415
635.06	0.24391
635.25	0.23505
635.44	0.22813
635.63	0.22208
635.81	0.21254
636.00	0.20565
636.19	0.20215
636.38	0.19404
636.56	0.18935
636.75	0.18093
636.94	0.17730
637.12	0.17114
637.31	0.16734
637.50	0.16069
637.69	0.15671
637.88	0.15237
638.06	0.14711
638.25	0.14032
638.44	0.13929
638.62	0.13312
638.81	0.13144
639.00	0.12745
639.19	0.12426
639.37	0.11942
639.56	0.11669
639.75	0.11313
639.94	0.11040
640.12	0.10890
640.31	0.10241
640.50	0.099564
640.69	0.097582
640.88	0.095204
641.06	0.094260
641.25	0.090053
641.44	0.087286
641.62	0.088466
641.81	0.084289
642.00	0.082295
642.19	0.080312
642.37	0.077433
642.56	0.076654
642.75	0.072819
642.94	0.072023
643.13	0.071462
643.31	0.069049
643.50	0.065928
643.69	0.064736
643.88	0.063562
644.06	0.061916
644.25	0.062742
644.44	0.059155
644.63	0.059208
644.81	0.057290
645.00	0.057561
645.19	0.054263
645.37	0.052635
645.56	0.051254
645.75	0.050434
645.94	0.050759
646.12	0.050493
646.31	0.047531
646.50	0.047337
646.69	0.046617
646.87	0.045608
647.06	0.045106
647.25	0.043708
647.44	0.041897
647.63	0.042510
647.81	0.043177
648.00	0.041442
648.19	0.039560
648.38	0.039855
648.56	0.038014
648.75	0.037855
648.94	0.037814
649.12	0.038038
649.31	0.035920
649.50	0.038156
649.69	0.036280
649.87	0.037029
650.06	0.035713
650.25	0.035831
650.44	0.034409
650.62	0.033182
650.81	0.032639
651.00	0.032663
651.19	0.034551
651.37	0.032580
651.56	0.031631
651.75	0.031023
651.94	0.030515
652.13	0.029807
652.31	0.029412
652.50	0.029117
652.69	0.030633
652.87	0.029217
653.06	0.028592
653.25	0.027447
653.44	0.027925
653.62	0.027465
653.81	0.026497
654.00	0.026580
654.19	0.024863
654.38	0.026751
654.56	0.025465
654.75	0.023477
654.94	0.024244
655.13	0.025134
655.31	0.023494
655.50	0.022887
655.69	0.022155
655.88	0.023772
656.06	0.022391
656.25	0.024362
656.44	0.023241
656.62	0.023087
656.81	0.021736
657.00	0.023524
657.19	0.022415
657.37	0.023512
657.56	0.020220
657.75	0.019553
657.94	0.020308
658.12	0.020509
658.31	0.019606
658.50	0.019488
658.69	0.021400
658.87	0.017240
659.06	0.020084
659.25	0.018408
659.44	0.018007
659.63	0.017340
659.81	0.021063
660.00	0.019512
660.19	0.017795
660.37	0.018697
660.56	0.019388
660.75	0.016391
660.94	0.016691
661.12	0.019181
661.31	0.018231
661.50	0.015694
661.69	0.018391
661.88	0.018007
662.06	0.016196
662.25	0.017706
662.44	0.018456
662.63	0.017576
662.81	0.014113
663.00	0.017488
663.19	0.016768
663.38	0.016202
663.56	0.014615
663.75	0.017812
663.94	0.016514
664.12	0.014556
664.31	0.014048
664.50	0.015553
664.69	0.014786
664.87	0.013594
665.06	0.016444
665.25	0.015287
665.44	0.016621
665.62	0.017588
665.81	0.015753
666.00	0.016078
666.19	0.017453
666.38	0.014426
666.56	0.015570
666.75	0.014709
666.94	0.016137
667.13	0.014095
667.31	0.014231
667.50	0.015936
667.69	0.016975
667.87	0.014202
668.06	0.017228
668.25	0.017093
668.44	0.015848
668.62	0.016178
668.81	0.015948
669.00	0.013824
669.19	0.015258
669.37	0.016290
669.56	0.016202
669.75	0.016886
669.94	0.018485
670.12	0.017276
670.31	0.019777
670.50	0.017742
670.69	0.018054
670.88	0.018408
671.06	0.018503
671.25	0.017211
671.44	0.018827
671.62	0.017004
671.81	0.020768
672.00	0.018338
672.19	0.020231
672.37	0.020143
672.56	0.018833
672.75	0.020562
672.94	0.018249
673.13	0.019063
673.31	0.021406
673.50	0.021016
673.69	0.021093
673.88	0.023205
674.06	0.022680
674.25	0.021370
674.44	0.023890
674.63	0.022255
674.81	0.024881
675.00	0.023435
675.19	0.026556
675.37	0.025683
675.56	0.023825
675.75	0.024645
675.94	0.024910
676.12	0.025854
676.31	0.025907
676.50	0.027058
676.69	0.026350
676.87	0.026397
677.06	0.027689
677.25	0.028114
677.44	0.027040
677.62	0.028002
677.81	0.029483
678.00	0.028155
678.19	0.028468
678.38	0.030214
678.56	0.031035
678.75	0.030804
678.94	0.029607
679.12	0.031955
679.31	0.030250
679.50	0.030804
679.69	0.031235
679.87	0.032173
680.06	0.031158
680.25	0.033182
680.44	0.031666
680.63	0.033017
680.81	0.033017
681.00	0.032598
681.19	0.034374
681.38	0.032834
681.56	0.032964
681.75	0.033365
681.94	0.033843
682.13	0.033513
682.31	0.034339
682.50	0.033926
682.69	0.036286
682.87	0.034474
683.06	0.033583
683.25	0.033778
683.44	0.035418
683.62	0.035112
683.81	0.033631
684.00	0.033436
684.19	0.034032
684.37	0.035884
684.56	0.033011
684.75	0.035719
684.94	0.034763
685.13	0.033442
685.31	0.034640
685.50	0.033501
685.69	0.032333
685.88	0.034038
686.06	0.032403
686.25	0.034091
686.44	0.034120
686.62	0.031507
686.81	0.034604
687.00	0.032474
687.19	0.031318
687.37	0.032262
687.56	0.033318
687.75	0.030893
687.94	0.031914
688.12	0.032474
688.31	0.031094
688.50	0.030852
688.69	0.030273
688.87	0.030492
689.06	0.031359
689.25	0.030079
689.44	0.030332
689.63	0.030209
689.81	0.028468
690.00	0.030445
690.19	0.028775
690.37	0.030745
690.56	0.028586
690.75	0.029335
690.94	0.027666
691.12	0.028085
691.31	0.026562
691.50	0.027406
691.69	0.027607
691.88	0.025618
692.06	0.028226
692.25	0.026857
692.44	0.026362
692.63	0.025193
692.81	0.025477
693.00	0.025896
693.19	0.023052
693.38	0.024592
693.56	0.024415
693.75	0.025660
693.94	0.022698
694.12	0.022108
694.31	0.023305
694.50	0.022214
694.69	0.021571
694.87	0.021937
695.06	0.020975
695.25	0.021671
695.44	0.021412
695.62	0.020928
695.81	0.019990
696.00	0.019105
696.19	0.020078
696.37	0.018821
696.56	0.020934
696.75	0.020096
696.94	0.018910
697.13	0.019193
697.31	0.016302
697.50	0.019040
697.69	0.017258
697.87	0.017417
698.06	0.016249
698.25	0.015889
698.44	0.017175
698.62	0.016874
698.81	0.014231
699.00	0.015128
699.19	0.013753
699.38	0.014833
699.56	0.015423
699.75	0.016296
699.94	0.013063
700.13	0.014650
700.31	0.012750
700.50	0.014325
700.69	0.014196
700.88	0.014373
701.06	0.011995
701.25	0.012384
701.44	0.012414
701.62	0.012024
701.81	0.012461
702.00	0.014078
702.19	0.010101
702.37	0.012520
702.56	0.010284
702.75	0.013411
702.94	0.012579
703.12	0.012278
703.31	0.011010
703.50	0.013063
703.69	0.010443
703.88	0.010915
704.06	0.0094166
704.25	0.012119
704.44	0.0089741
704.63	0.0086968
704.81	0.010998
705.00	0.0083133
705.19	0.0084726
705.37	0.0079121
705.56	0.0091865
705.75	0.0085847
705.94	0.010933
706.12	0.0071922
706.31	0.0075875
706.50	0.0085021
706.69	0.0086732
706.87	0.0092809
707.06	0.0086555
707.25	0.0079239
707.44	0.0085552
707.62	0.0087027
707.81	0.0073043
708.00	0.0075875
708.19	0.0066553
708.38	0.0084903
708.56	0.0071981
708.75	0.0059119
708.94	0.0076111
709.12	0.0060181
709.31	0.0061066
709.50	0.0062010
709.69	0.0061538
709.87	0.0060712
710.06	0.0039767
710.25	0.0055638
710.44	0.0074577
710.63	0.0070093
710.81	0.0057585
711.00	0.0066966
711.19	0.0044605
711.38	0.0061479
711.56	0.0054281
711.75	0.0047319
711.94	0.0058116
712.13	0.0037702
712.31	0.0043071
712.50	0.0055874
712.69	0.0035932
712.87	0.0078707
713.06	0.0033572
713.25	0.0046021
713.44	0.0056877
713.62	0.0017936
713.81	0.0052983
714.00	0.0045431
714.19	0.0050033
714.37	0.0030445
714.56	0.0036994
714.75	0.0040062
714.94	0.0023659
715.12	0.0049325
715.31	0.0035755
715.50	0.0047142
715.69	0.0032215
715.88	0.0066022
716.06	0.0035342
716.25	0.0033572
716.44	0.0058116
716.62	0.0044664
716.81	0.0036286
717.00	0.0060476
717.19	0.0041183
717.37	0.0060358
717.56	0.0040062
717.75	0.0037112
717.94	0.0024249
718.13	0.00080832
718.31	0.0027082
718.50	0.0041006
718.69	0.0027318
718.88	0.0038528
719.06	0.0011092
719.25	0.0036109
719.44	0.0023895
719.63	0.0016815
719.81	0.0042835
720.00	0.0034693
720.19	0.0035755
720.37	0.0039413
720.56	0.0042776
720.75	0.0019175
720.94	0.0020296
721.12	0.0027141
721.31	0.0026315
721.50	0.0037407
721.69	0.0027377
721.87	0.0015222
722.06	0.0025547
722.25	0.0041419
722.44	0.0017582
722.63	0.0032687
722.81	0.0019824
723.00	0.0033041
723.19	0.0037879
723.38	0.0034280
723.56	0.0019293
723.75	0.0020945
723.94	0.0016579
724.12	0.0061420
724.31	0.00093222
724.50	0.0028675
724.69	0.0020178
724.87	0.0038410
725.06	0.00097352
725.25	-0.00074931
725.44	0.0038705
725.62	0.0020237
725.81	0.00013570
726.00	0.0040239
726.19	0.0014042
726.37	0.0021299
726.56	0.0051272
726.75	0.0030504
726.94	0.0013275
727.13	0.0028852
727.31	0.0025488
727.50	0.0066494
727.69	0.0028793
727.87	0.0019765
728.06	0.0041006
728.25	0.0052098
728.44	0.0045077
728.62	0.0021240
728.81	0.0014750
729.00	0.0045844
729.19	0.0024780
729.38	0.0013511
729.56	0.0026610
729.75	0.0018585
729.94	0.0026905
730.13	0.0039000
730.31	0.0034811
730.50	0.00014160
730.69	4.7201e-05
730.88	0.0033513
731.06	0.0022892
731.25	0.0031625
731.44	0.0024367
731.62	0.0038882
731.81	0.0044841
732.00	0.0012449
732.19	0.0010502
732.37	0.0019411
732.56	-0.00038941
732.75	0.0021004
732.94	0.0013806
733.12	0.00084962
733.31	0.0031212
733.50	0.0028026
733.69	0.0044664
733.87	-0.00087912
734.06	0.0051095
734.25	0.0021063
734.44	0.0035814
734.63	0.0021771
734.81	0.0024249
735.00	0.00086732
735.19	-0.0011800
735.37	0.0040239
735.56	0.0016992
735.75	0.0020060
735.94	0.0057467
736.12	0.00088502
736.31	0.00044841
736.50	0.00015340
736.69	0.00071981
736.88	0.0055166
737.06	0.0020355
737.25	0.0017464
737.44	0.0018408
737.63	-0.00020060
737.81	0.0030032
738.00	0.0011446
738.19	0.0011623
738.38	-0.0011446
738.56	0.0017051
738.75	0.0016756
738.94	0.0014337
739.12	0.0015281
739.31	0.0017936
739.50	0.0024544
739.69	0.00014750
739.87	0.0021948
740.06	0.0024780
740.25	0.0033336
740.44	0.0013629
740.62	0.0050033
740.81	0.0036168
741.00	-0.00080832
741.19	0.0012626
741.38	0.0039531
741.56	0.0031389
741.75	0.0010679
741.94	0.0015930
742.13	-0.00012980
742.31	0.0018526
742.50	-0.00025960
742.69	-0.00046611
742.87	0.0017877
743.06	0.0021358
743.25	0.0028380
743.44	0.0024780
743.62	0.0023659
743.81	0.0033100
744.00	-0.00091452
744.19	-0.00088502
744.37	0.0026787
744.56	0.0032333
744.75	-0.00015340
744.94	0.0010030
745.12	-0.0019765
745.31	-0.0010561
745.50	-0.00093222
745.69	0.0032687
745.88	0.00090862
746.06	0.0018998
746.25	0.0017523
746.44	-0.0020237
746.62	-0.00051921
746.81	0.0039177
747.00	0.0020650
747.19	0.0042245
747.37	0.00063131
747.56	0.0026846
747.75	0.0019352
747.94	0.0026905
748.13	0.0012803
748.31	-0.00015930
748.50	-0.0020827
748.69	0.00057231
748.88	0.0022597
749.06	0.0034516
749.25	-0.0012154
749.44	-0.00059591
749.63	0.0027436
749.81	0.0025429
750.00	0.0017995
